File: gsoc_xylib/samples/rigaku_dat/sample1r.dat
*TYPE           =  Raw
*CLASS          =  Standard measurement
*SAMPLE         =  SAMPLE1
*COMMENT        =  SAMPLE1
*FNAME          =  SAMPLE1R.DAT
*DATE           =  04-Mar-92 16:34

*GROUP_COUNT    =  1
*GONIO          =  RINT2000 Wide angle goniometer, 185
*ATTACHMENT     =  Standard Sample Holder
*ASC            =  1, 0, 1, 0
*FILTER         =  Not installed
*C_MONOCHRO     =  Not installed, 0
*SLIT_NAME      =  0, Divergence slit
*SLIT_NAME      =  1, Scattering slit
*SLIT_NAME      =  2, Receiving slit
*COUNTER        =  Scintillation counter, 0
*POS_FORMAT     =  0
*SCAN_AXIS      =  2 Theta / Theta
*MEAS_MODE      =  FT
*TARGET         =  29
*XRAY_CHAR      =  K-ALPHA1
*WAVE_LENGTH1   =  1.54056
*WAVE_LENGTH2   =  1.5444
*THICKNESS      =  0, 0
*MU             =  0, 0
*SCAN_MODE      =  2theta/theta
*SPEED_DIM      =  sec./step(FT)
*XUNIT          =  deg.
*YUNIT          =  cps
*SCALE_MODE     =  1
*REP_COUNT      =  1
*SE_COUNT       =  0
*STD_MATERIAL   =  Unknown, Unknown, 0, 0, 0, 0, 0, 0
*LATT_CONS      =  0, Hexagonal, Unknown, 10.118, 10.118, 10.118, 90, 90, 120
*SEC_COUNT      =  2
*TSPEC_SIZE     =  4
*TYPE_SPEC      =  0, 0
*TYPE_SPEC      =  1, 0
*TYPE_SPEC      =  2, 0
*TYPE_SPEC      =  3, 0
*MEMO           =  RS=0.15 DS=SS=1/2 MRS=NO

*BEGIN
*GROUP          =  0
*START          =  10.0000
*STOP           =  103.1200
*STEP           =  0.0200
*OFFSET         =  0.0000
*SPEED          =  10
*SLIT_SPEC      =  0, "1/2deg.", 0.87, 10
*SLIT_SPEC      =  1, "1/2deg.", 0.47, 20
*SLIT_SPEC      =  2, "0.15mm", 0.15, 20
*KV             =  20
*MA             =  200
*LOW            =  0
*HIGH           =  0
*CTEMPER        =  0, 0
*CTEMPER        =  1, 0
*CTEMPER        =  2, 0
*PAREX          =  0, 0
*PAREX          =  1, 0
*PAREX          =  2, 0
*PAREX          =  3, 0
*PAREX          =  4, 0
*PAREX          =  5, 0
*PAREX          =  6, 0
*PAREX          =  7, 0
*PAREX          =  8, 0
*PAREX          =  9, 0
*PAREX          =  10, 0
*PAREX          =  11, 0
*PAREX          =  12, 0
*PAREX          =  13, 10
*PAREX          =  14, 0.01
*PAREX          =  15, 0
*FULL_SCALE     =  1000
*EXTRA_SIZE     =  4
*EXTRA          =  0, 0
*EXTRA          =  1, 0
*EXTRA          =  2, 0
*EXTRA          =  3, 0
*INDEX          =  0, 0, 0
*COUNT          =  4657
 1048, 1162, 1108, 1163
 1071, 1057, 1055, 973
 1000, 1031, 1068, 1015
 983, 1028, 1030, 1019
 1065, 1016, 1022, 1033
 1033, 974, 1088, 1000
 979, 1024, 968, 923
 1022, 953, 1030, 915
 989, 953, 959, 947
 953, 877, 967, 836
 896, 842, 896, 861
 877, 862, 869, 838
 896, 824, 893, 826
 859, 858, 824, 816
 796, 826, 787, 813
 814, 765, 793, 760
 804, 711, 752, 782
 785, 721, 747, 755
 709, 731, 748, 750
 744, 738, 704, 682
 642, 737, 714, 665
 655, 649, 652, 651
 661, 662, 669, 612
 640, 679, 632, 646
 636, 606, 608, 618
 585, 613, 609, 599
 573, 611, 565, 551
 529, 512, 553, 578
 530, 516, 503, 531
 536, 502, 495, 518
 459, 485, 491, 485
 476, 439, 464, 485
 459, 423, 423, 451
 427, 425, 462, 437
 453, 417, 405, 392
 405, 429, 428, 413
 406, 380, 389, 400
 402, 361, 397, 396
 398, 371, 395, 396
 417, 401, 416, 389
 395, 432, 421, 441
 428, 405, 384, 458
 436, 373, 370, 353
 327, 373, 315, 351
 314, 325, 327, 329
 328, 289, 307, 321
 334, 326, 337, 327
 341, 306, 339, 332
 315, 314, 343, 345
 300, 329, 322, 317
 348, 329, 292, 306
 309, 330, 323, 319
 333, 342, 313, 289
 306, 304, 308, 309
 289, 319, 281, 301
 306, 322, 297, 293
 273, 275, 303, 287
 297, 297, 302, 287
 292, 303, 266, 305
 265, 290, 287, 295
 291, 283, 319, 267
 286, 280, 257, 292
 288, 263, 307, 305
 286, 295, 274, 284
 298, 258, 313, 278
 285, 278, 275, 328
 292, 277, 293, 261
 273, 249, 284, 296
 246, 278, 286, 263
 258, 272, 291, 248
 284, 233, 278, 255
 266, 252, 235, 261
 289, 259, 260, 291
 292, 258, 301, 317
 283, 327, 287, 342
 352, 381, 398, 436
 467, 473, 537, 574
 591, 721, 865, 1047
 1411, 1495, 1890, 1964
 1849, 1667, 1375, 1044
 813, 597, 533, 442
 405, 339, 340, 312
 280, 295, 287, 297
 277, 251, 279, 292
 280, 262, 274, 254
 246, 240, 282, 267
 280, 243, 263, 234
 255, 242, 246, 243
 248, 273, 244, 229
 243, 260, 241, 239
 250, 245, 268, 237
 266, 236, 230, 244
 222, 260, 251, 231
 245, 270, 277, 239
 233, 246, 260, 237
 279, 296, 287, 277
 312, 344, 370, 377
 437, 463, 619, 726
 940, 1175, 1441, 1370
 1340, 1120, 823, 621
 539, 402, 405, 365
 358, 335, 309, 328
 378, 402, 413, 420
 512, 585, 764, 937
 1301, 1712, 2162, 2618
 2673, 2414, 1896, 1484
 1075, 761, 595, 474
 386, 355, 310, 306
 265, 244, 297, 257
 257, 239, 241, 246
 235, 224, 239, 227
 239, 209, 251, 244
 227, 223, 208, 230
 216, 240, 209, 264
 252, 231, 267, 236
 267, 239, 259, 253
 250, 254, 238, 237
 251, 223, 233, 222
 234, 220, 220, 243
 235, 227, 227, 244
 208, 239, 218, 248
 221, 228, 233, 212
 201, 208, 237, 221
 185, 239, 216, 237
 240, 241, 234, 243
 265, 259, 233, 255
 295, 246, 291, 306
 326, 327, 415, 404
 454, 517, 641, 729
 1069, 1359, 1690, 2239
 2803, 3021, 2978, 2771
 2249, 1886, 1374, 1056
 794, 635, 539, 402
 404, 394, 314, 313
 269, 249, 252, 232
 227, 184, 236, 187
 216, 220, 229, 235
 234, 232, 246, 236
 269, 264, 300, 324
 366, 433, 542, 724
 833, 1112, 1250, 1230
 1129, 996, 785, 595
 480, 405, 298, 307
 267, 238, 205, 251
 232, 197, 204, 201
 199, 215, 202, 189
 212, 184, 206, 191
 199, 195, 206, 176
 182, 199, 216, 171
 203, 197, 183, 194
 193, 182, 172, 183
 173, 200, 166, 164
 191, 184, 203, 196
 197, 200, 192, 206
 216, 191, 191, 193
 164, 176, 183, 202
 204, 173, 208, 163
 180, 202, 188, 188
 190, 192, 181, 184
 193, 183, 182, 190
 195, 175, 178, 197
 190, 205, 212, 201
 225, 191, 186, 208
 218, 228, 206, 225
 187, 221, 189, 197
 202, 181, 173, 191
 190, 184, 187, 213
 185, 189, 179, 199
 186, 189, 185, 213
 169, 163, 189, 199
 213, 194, 185, 197
 190, 197, 192, 196
 215, 218, 235, 220
 231, 196, 217, 217
 213, 199, 224, 218
 220, 207, 220, 211
 229, 220, 252, 243
 256, 285, 291, 280
 290, 284, 282, 313
 299, 307, 351, 375
 429, 491, 573, 719
 922, 1281, 1853, 2606
 3382, 4196, 4391, 4088
 3522, 2733, 2081, 1483
 936, 753, 614, 492
 404, 399, 332, 300
 326, 310, 268, 261
 245, 226, 236, 224
 230, 210, 211, 234
 225, 201, 211, 229
 202, 232, 205, 216
 193, 216, 229, 245
 228, 214, 215, 201
 214, 207, 190, 224
 225, 220, 219, 240
 225, 234, 225, 274
 276, 261, 284, 275
 288, 309, 344, 308
 346, 339, 417, 415
 443, 552, 604, 657
 749, 945, 1131, 1327
 1878, 2577, 3594, 5005
 6997, 8886, 10027, 9936
 9126, 8013, 6449, 4848
 3449, 2411, 1762, 1328
 1080, 901, 750, 730
 639, 573, 553, 529
 505, 483, 459, 404
 389, 353, 327, 298
 288, 272, 295, 231
 245, 255, 261, 260
 264, 219, 257, 242
 262, 206, 208, 274
 220, 236, 212, 235
 240, 251, 260, 214
 244, 249, 265, 233
 275, 242, 307, 286
 305, 286, 329, 316
 370, 399, 474, 583
 662, 883, 970, 994
 1050, 1065, 1038, 1031
 1048, 1068, 1187, 1412
 1615, 1927, 2626, 3806
 5355, 7863, 10950, 13771
 15559, 15429, 13800, 11860
 9501, 7293, 5060, 3394
 2422, 1830, 1483, 1226
 1004, 850, 806, 816
 732, 733, 657, 620
 561, 479, 436, 395
 394, 355, 357, 314
 308, 336, 287, 334
 350, 332, 321, 343
 361, 325, 340, 359
 381, 407, 430, 403
 410, 439, 474, 539
 666, 795, 1030, 1373
 1866, 2190, 2716, 2648
 2496, 2263, 2123, 1666
 1365, 1128, 869, 713
 603, 503, 487, 430
 354, 381, 296, 307
 296, 283, 275, 284
 280, 266, 258, 252
 259, 280, 282, 301
 299, 319, 348, 330
 336, 367, 420, 421
 449, 432, 503, 569
 658, 784, 982, 1100
 1441, 1934, 2507, 3178
 3847, 4129, 4370, 4150
 4061, 3787, 3611, 3542
 3892, 4511, 5840, 7649
 9240, 10345, 10150, 9391
 8179, 6956, 5584, 4096
 2798, 2144, 1537, 1148
 959, 847, 720, 652
 545, 508, 460, 396
 400, 338, 319, 311
 290, 354, 281, 285
 281, 285, 284, 273
 241, 246, 254, 236
 223, 200, 214, 192
 195, 209, 205, 171
 173, 183, 176, 162
 171, 196, 183, 171
 162, 159, 161, 190
 173, 160, 171, 167
 169, 192, 181, 162
 160, 165, 165, 162
 178, 174, 161, 133
 154, 172, 149, 135
 154, 165, 152, 160
 145, 154, 181, 141
 149, 144, 170, 144
 161, 151, 159, 163
 160, 164, 160, 152
 156, 171, 176, 177
 146, 176, 173, 185
 157, 178, 187, 171
 191, 208, 195, 171
 202, 191, 215, 229
 228, 224, 276, 276
 290, 304, 373, 404
 440, 523, 499, 642
 825, 975, 1206, 1570
 1934, 2253, 2466, 2572
 2524, 2480, 2266, 1909
 1686, 1399, 1158, 965
 794, 616, 557, 509
 417, 432, 349, 311
 265, 277, 248, 242
 219, 168, 190, 232
 189, 196, 175, 183
 190, 177, 156, 159
 158, 176, 158, 189
 148, 189, 168, 167
 149, 157, 167, 168
 153, 143, 138, 157
 165, 141, 150, 155
 157, 148, 119, 157
 149, 158, 142, 176
 138, 171, 126, 164
 155, 154, 154, 167
 142, 147, 143, 181
 155, 162, 138, 160
 165, 159, 165, 188
 163, 175, 171, 173
 194, 160, 176, 212
 199, 185, 184, 198
 186, 214, 168, 188
 211, 237, 275, 272
 290, 306, 335, 410
 474, 472, 591, 677
 825, 975, 1249, 1479
 1969, 2269, 2483, 2541
 2536, 2418, 2263, 1968
 1778, 1466, 1304, 1007
 867, 692, 604, 566
 496, 471, 415, 381
 353, 364, 373, 353
 338, 372, 399, 463
 512, 655, 802, 1059
 1242, 1366, 1570, 1520
 1355, 1221, 1122, 1048
 844, 718, 587, 477
 436, 406, 410, 455
 501, 661, 763, 932
 1008, 961, 975, 909
 887, 807, 660, 555
 527, 384, 369, 326
 264, 240, 238, 223
 187, 197, 188, 172
 175, 163, 175, 151
 169, 165, 162, 181
 183, 164, 161, 163
 171, 176, 171, 243
 270, 284, 347, 438
 471, 529, 591, 556
 548, 515, 489, 412
 381, 323, 279, 246
 234, 184, 172, 171
 169, 156, 128, 149
 149, 127, 136, 142
 137, 142, 127, 133
 149, 121, 126, 142
 115, 125, 170, 143
 140, 130, 147, 137
 149, 149, 155, 157
 142, 160, 136, 134
 121, 160, 124, 147
 151, 138, 149, 122
 146, 136, 144, 158
 146, 157, 162, 163
 183, 182, 190, 192
 203, 253, 277, 381
 386, 457, 509, 529
 520, 546, 463, 474
 454, 410, 322, 304
 263, 254, 225, 206
 215, 202, 209, 162
 164, 168, 184, 150
 161, 170, 157, 174
 154, 137, 149, 150
 147, 142, 131, 143
 166, 159, 176, 149
 131, 156, 166, 147
 138, 175, 190, 199
 182, 176, 215, 191
 240, 285, 290, 353
 392, 438, 387, 411
 420, 455, 474, 553
 645, 798, 1027, 1321
 1731, 1953, 1971, 1884
 1752, 1509, 1414, 1292
 1128, 821, 633, 531
 433, 358, 346, 362
 329, 313, 339, 327
 364, 345, 425, 422
 488, 528, 626, 803
 921, 1191, 1540, 2042
 2305, 2589, 2905, 2981
 3049, 2963, 2873, 2615
 2360, 1988, 1699, 1541
 1225, 1028, 871, 711
 598, 550, 485, 448
 409, 362, 331, 342
 313, 314, 286, 250
 236, 257, 259, 272
 261, 266, 279, 297
 289, 352, 389, 459
 548, 719, 930, 1199
 1399, 1500, 1551, 1364
 1265, 1239, 1198, 1051
 933, 768, 639, 613
 492, 427, 408, 424
 405, 441, 488, 478
 466, 438, 383, 419
 377, 326, 279, 239
 236, 213, 197, 193
 174, 163, 196, 172
 165, 171, 167, 129
 179, 142, 156, 159
 137, 140, 159, 166
 122, 163, 165, 164
 202, 179, 206, 211
 202, 200, 228, 200
 196, 163, 179, 199
 185, 172, 151, 152
 175, 151, 150, 137
 139, 137, 146, 137
 134, 146, 120, 137
 138, 135, 142, 140
 141, 150, 170, 167
 165, 167, 173, 197
 232, 246, 290, 314
 380, 344, 335, 305
 295, 314, 293, 248
 245, 203, 200, 188
 161, 172, 183, 169
 151, 149, 149, 153
 173, 161, 173, 166
 211, 191, 186, 224
 194, 205, 208, 232
 239, 249, 254, 221
 249, 240, 241, 253
 247, 266, 286, 289
 298, 319, 336, 395
 380, 422, 408, 412
 372, 375, 370, 335
 312, 277, 286, 269
 254, 244, 237, 222
 204, 218, 206, 228
 203, 212, 244, 254
 238, 255, 261, 260
 312, 303, 294, 352
 393, 417, 513, 556
 644, 807, 1012, 1189
 1622, 2033, 2589, 3140
 3612, 4012, 3749, 3623
 3310, 3023, 2774, 2634
 2126, 1937, 1465, 1165
 893, 694, 644, 498
 463, 424, 390, 408
 379, 363, 360, 427
 390, 510, 548, 610
 663, 578, 571, 506
 551, 520, 455, 450
 419, 354, 309, 317
 335, 301, 310, 317
 352, 408, 461, 534
 612, 772, 883, 1014
 1005, 1003, 955, 933
 905, 899, 782, 683
 671, 592, 515, 476
 434, 387, 329, 389
 321, 411, 396, 428
 486, 474, 555, 627
 690, 835, 1051, 1307
 1655, 2221, 2747, 3240
 3410, 3640, 3323, 3022
 2879, 2844, 2669, 2417
 1989, 1733, 1388, 1184
 967, 821, 829, 715
 703, 670, 702, 781
 865, 1172, 1400, 1621
 1900, 2086, 2046, 2017
 1897, 1774, 1834, 1707
 1659, 1498, 1230, 1093
 932, 760, 655, 569
 485, 410, 362, 351
 319, 290, 264, 269
 260, 252, 219, 197
 227, 240, 243, 225
 248, 243, 265, 218
 205, 252, 198, 197
 208, 205, 193, 208
 167, 175, 183, 154
 162, 162, 167, 170
 145, 154, 169, 143
 162, 171, 179, 166
 138, 168, 148, 179
 144, 180, 142, 153
 164, 158, 148, 156
 181, 178, 143, 147
 184, 156, 211, 182
 210, 207, 177, 218
 219, 245, 237, 282
 301, 340, 416, 510
 600, 716, 817, 868
 834, 764, 713, 687
 683, 659, 656, 613
 577, 594, 567, 608
 678, 743, 824, 1028
 1153, 1416, 1634, 1726
 1821, 1855, 1764, 1705
 1600, 1554, 1543, 1339
 1185, 1090, 966, 825
 728, 644, 558, 517
 468, 409, 379, 367
 345, 342, 307, 327
 298, 293, 284, 287
 350, 369, 373, 398
 455, 518, 557, 640
 737, 890, 943, 1153
 1272, 1306, 1406, 1257
 1150, 1106, 1141, 1182
 1193, 1122, 1025, 900
 789, 753, 684, 716
 627, 676, 613, 591
 536, 579, 566, 667
 666, 791, 950, 1279
 1558, 2090, 2440, 2759
 2798, 2606, 2384, 2062
 2044, 1871, 1919, 1744
 1431, 1165, 972, 716
 580, 500, 392, 350
 353, 250, 255, 261
 246, 205, 228, 226
 196, 196, 180, 191
 188, 193, 181, 169
 193, 169, 185, 190
 177, 158, 181, 175
 205, 214, 188, 198
 209, 206, 226, 206
 205, 201, 236, 243
 250, 276, 337, 344
 372, 483, 571, 750
 934, 1224, 1315, 1517
 1440, 1348, 1134, 1087
 1026, 1028, 967, 894
 780, 650, 501, 457
 411, 329, 326, 275
 277, 226, 219, 224
 190, 184, 185, 192
 173, 163, 169, 153
 180, 159, 158, 157
 162, 160, 139, 157
 179, 161, 180, 153
 159, 170, 146, 168
 155, 181, 162, 189
 208, 214, 193, 247
 232, 213, 227, 212
 222, 225, 222, 268
 260, 241, 294, 279
 297, 281, 273, 258
 293, 301, 287, 302
 340, 339, 351, 420
 537, 583, 655, 696
 747, 825, 848, 885
 936, 1064, 1088, 1086
 1058, 1047, 926, 876
 838, 808, 713, 681
 619, 579, 490, 464
 415, 371, 332, 284
 296, 261, 247, 244
 250, 231, 233, 188
 208, 217, 204, 217
 215, 189, 211, 211
 203, 207, 192, 189
 209, 189, 199, 182
 171, 172, 155, 156
 157, 169, 170, 151
 185, 199, 179, 175
 190, 167, 198, 189
 236, 245, 240, 295
 327, 377, 338, 387
 429, 443, 532, 585
 751, 825, 973, 971
 995, 1047, 1066, 1020
 1152, 1109, 1068, 1038
 983, 883, 752, 745
 718, 659, 561, 481
 433, 373, 351, 305
 262, 232, 278, 217
 230, 193, 175, 201
 207, 212, 222, 214
 223, 242, 240, 234
 320, 312, 398, 409
 498, 498, 550, 572
 598, 578, 589, 556
 536, 503, 507, 491
 483, 554, 480, 544
 537, 527, 558, 567
 554, 542, 533, 514
 526, 558, 598, 673
 754, 767, 800, 814
 694, 621, 593, 552
 500, 535, 548, 488
 456, 380, 321, 284
 257, 208, 205, 231
 209, 245, 236, 222
 219, 218, 234, 232
 278, 273, 331, 311
 359, 416, 505, 574
 722, 788, 911, 990
 1052, 1059, 998, 1014
 1031, 1024, 1126, 1119
 1161, 1145, 1150, 1059
 905, 879, 801, 763
 663, 700, 651, 630
 588, 490, 472, 433
 403, 377, 375, 369
 382, 358, 339, 379
 387, 343, 362, 406
 465, 418, 487, 450
 458, 419, 397, 402
 361, 337, 331, 333
 292, 266, 226, 208
 191, 179, 182, 156
 178, 184, 155, 149
 129, 160, 124, 133
 139, 129, 128, 140
 127, 155, 131, 134
 121, 123, 135, 126
 137, 115, 123, 120
 124, 133, 132, 126
 115, 130, 127, 100
 132, 130, 126, 144
 128, 120, 125, 139
 135, 114, 128, 134
 156, 119, 115, 128
 138, 118, 134, 133
 117, 141, 129, 142
 150, 147, 134, 143
 137, 123, 165, 182
 181, 157, 193, 176
 212, 251, 207, 267
 229, 254, 272, 247
 225, 268, 240, 272
 247, 204, 181, 214
 177, 179, 174, 147
 173, 172, 154, 170
 172, 177, 157, 177
 162, 181, 182, 205
 211, 211, 262, 279
 309, 394, 466, 465
 555, 615, 636, 569
 645, 555, 511, 515
 532, 533, 550, 487
 510, 458, 426, 417
 339, 324, 335, 337
 311, 339, 380, 377
 358, 408, 368, 371
 383, 349, 371, 354
 346, 313, 320, 319
 298, 284, 260, 263
 255, 248, 238, 227
 211, 220, 213, 206
 230, 230, 242, 249
 228, 248, 282, 296
 357, 379, 344, 373
 351, 309, 278, 303
 281, 302, 263, 305
 257, 281, 266, 263
 280, 271, 221, 199
 219, 217, 226, 222
 220, 245, 279, 300
 286, 348, 323, 288
 306, 271, 293, 240
 285, 305, 286, 255
 279, 278, 281, 274
 272, 234, 239, 225
 177, 187, 192, 193
 187, 167, 176, 182
 159, 149, 145, 152
 147, 117, 116, 96
 118, 109, 120, 114
 113, 112, 111, 134
 110, 142, 120, 114
 124, 119, 137, 144
 132, 127, 104, 126
 121, 122, 126, 140
 101, 120, 129, 118
 99, 125, 125, 132
 140, 111, 103, 114
 130, 141, 112, 105
 124, 148, 123, 160
 133, 141, 118, 133
 140, 118, 115, 131
 129, 113, 119, 111
 142, 130, 129, 120
 132, 123, 126, 106
 110, 127, 123, 131
 115, 125, 121, 130
 130, 116, 117, 128
 114, 152, 137, 123
 119, 113, 143, 131
 128, 126, 130, 126
 139, 134, 179, 133
 162, 169, 149, 152
 163, 152, 203, 198
 195, 217, 217, 237
 247, 294, 327, 368
 392, 369, 430, 446
 479, 480, 491, 497
 471, 514, 542, 507
 504, 474, 452, 475
 454, 473, 445, 458
 415, 457, 492, 551
 516, 555, 569, 502
 532, 487, 405, 402
 380, 376, 360, 426
 367, 343, 316, 265
 260, 224, 245, 235
 206, 207, 211, 220
 219, 241, 245, 245
 242, 292, 246, 263
 240, 239, 255, 247
 253, 226, 288, 269
 296, 282, 312, 349
 327, 317, 318, 288
 335, 326, 329, 322
 352, 367, 311, 363
 322, 342, 340, 324
 271, 302, 290, 247
 285, 254, 277, 238
 256, 255, 252, 236
 254, 251, 269, 242
 264, 270, 285, 294
 308, 288, 315, 322
 328, 353, 377, 423
 454, 488, 465, 581
 604, 665, 733, 820
 802, 874, 934, 1070
 1115, 1204, 1322, 1314
 1339, 1300, 1390, 1332
 1302, 1330, 1263, 1237
 1195, 1278, 1128, 1121
 1121, 1112, 1169, 1266
 1212, 1296, 1155, 1091
 958, 897, 916, 893
 913, 899, 893, 953
 853, 762, 693, 586
 613, 529, 521, 473
 416, 390, 380, 387
 337, 321, 297, 291
 269, 283, 265, 229
 232, 215, 216, 206
 213, 215, 207, 219
 200, 224, 212, 213
 216, 196, 206, 186
 197, 200, 174, 166
 171, 172, 166, 160
 178, 157, 133, 139
 194, 171, 155, 178
 178, 182, 167, 184
 163, 175, 183, 224
 225, 221, 239, 244
 259, 308, 381, 400
 432, 411, 438, 469
 430, 402, 384, 396
 424, 448, 436, 484
 470, 580, 535, 576
 663, 710, 802, 832
 928, 882, 938, 852
 900, 859, 916, 964
 947, 965, 1002, 1036
 996, 1017, 969, 891
 832, 788, 703, 624
 624, 562, 580, 529
 473, 429, 457, 412
 380, 381, 312, 299
 272, 254, 267, 283
 271, 278, 268, 264
 298, 334, 356, 426
 477, 574, 619, 715
 742, 717, 648, 606
 522, 517, 495, 444
 497, 501, 526, 512
 471, 421, 381, 373
 312, 305, 299, 282
 294, 282, 310, 293
 282, 279, 341, 284
 289, 271, 266, 267
 270, 266, 268, 240
 246, 237, 239, 198
 214, 193, 179, 215
 204, 204, 187, 204
 220, 201, 184, 222
 231, 227, 210, 227
 235, 208, 247, 217
 218, 216, 174, 221
 229, 204, 228, 241
 251, 250, 254, 270
 291, 323, 318, 399
 418, 390, 421, 464
 431, 461, 405, 427
 440, 441, 417, 383
 420, 368, 404, 355
 367, 321, 277, 269
 286, 276, 233, 222
 225, 189, 216, 214
 209, 249, 201, 211
 217, 235, 202, 241
 210, 209, 248, 276
 260, 332, 353, 380
 399, 462, 488, 598
 538, 641, 595, 672
 620, 651, 617, 610
 627, 558, 610, 620
 662, 703, 684, 694
 653, 699, 657, 619
 602, 509, 507, 452
 517, 446, 493, 473
 487, 458, 485, 501
 442, 432, 424, 389
 352, 389, 360, 361
 341, 295, 277, 327
 300, 320, 279, 286
 316, 278, 271, 299
 287, 317, 322, 306
 263, 288, 277, 266
 235, 214, 216, 242
 248, 233, 232, 211
 184, 188, 184, 177
 168, 215, 137, 174
 175, 166, 150, 150
 183, 145, 132, 133
 144, 126, 119, 158
 154, 153, 149, 149
 171, 141, 158, 179
 170, 188, 185, 160
 164, 165, 194, 160
 190, 187, 214, 199
 241, 243, 217, 222
 215, 237, 202, 223
 235, 222, 216, 214
 255, 195, 234, 196
 222, 184, 181, 193
 183, 174, 151, 156
 146, 176, 156, 162
 157, 124, 159, 148
 149, 148, 129, 139
 147, 140, 147, 193
 193, 175, 177, 214
 219, 233, 248, 246
 264, 269, 237, 251
 259, 239, 247, 233
 246, 226, 223, 208
 197, 224, 209, 231
 215, 232, 205, 245
 186, 188, 214, 216
 215, 231, 228, 296
 273, 293, 329, 318
 318, 365, 327, 347
 376, 322, 330, 339
 355, 299, 359, 304
 298, 287, 273, 282
 285, 282, 249, 247
 201, 224, 185, 204
 169, 204, 154, 172
 174, 171, 147, 164
 150, 170, 127, 130
 171, 168, 146, 170
 150, 150, 131, 146
 162, 150, 147, 159
 168, 147, 161, 160
 158, 172, 199, 245
 228, 213, 182, 239
 211, 193, 197, 227
 235, 222, 242, 215
 233, 227, 213, 223
 228, 205, 205, 217
 208, 210, 238, 214
 194, 210, 257, 263
 279, 284, 336, 380
 470, 526, 545, 527
 504, 476, 457, 448
 399, 380, 359, 331
 371, 360, 393, 368
 339, 315, 299, 307
 283, 221, 233, 238
 238, 225, 228, 197
 198, 216, 238, 243
 240, 258, 269, 294
 265, 289, 244, 253
 257, 256, 240, 236
 233, 264, 252, 228
 262, 243, 254, 227
 220, 238, 227, 203
 240, 242, 249, 264
 269, 351, 363, 447
 470, 514, 591, 617
 655, 664, 584, 565
 542, 516, 483, 536
 489, 530, 560, 533
 598, 551, 578, 550
 576, 565, 531, 565
 638, 563, 548, 505
 502, 481, 425, 437
 382, 391, 399, 434
 406, 396, 350, 339
 369, 294, 268, 261
 236, 262, 241, 220
 240, 229, 223, 222
 229, 273, 249, 285
 290, 250, 262, 280
 220, 240, 245, 236
 248, 247, 247, 220
 236, 245, 241, 228
 262, 180, 214, 209
 198, 206, 193, 203
 195, 207, 218, 246
 227, 239, 264, 264
 302, 287, 286, 277
 253, 327, 295, 310
 329, 302, 332, 344
 294, 302, 325, 327
 306, 277, 302, 274
 284, 296, 274, 295
 251, 286, 285, 311
 283, 270, 252, 245
 226, 229, 235, 236
 230, 247, 243, 202
 231, 220, 240, 240
 212, 218, 213, 208
 223, 177, 225, 192
 192, 191, 181, 173
 190, 171, 181, 195
 210, 194, 182, 182
 174, 201, 179, 201
 179, 194, 166, 197
 200, 174, 211, 205
 178, 194, 223, 194
 234, 234, 272, 237
 286, 274, 325, 337
 328, 309, 335, 300
 258, 257, 248, 231
 239, 239, 254, 249
 250, 257, 248, 216
 212, 204, 175, 188
 158, 163, 192, 176
 151, 132, 155, 156
 129, 160, 155, 135
 165, 175, 166, 160
 154, 165, 171, 165
 191, 213, 200, 200
 225, 235, 262, 262
 255, 259, 252, 245
 286, 303, 345, 369
 405, 451, 510, 451
 463, 492, 441, 416
 370, 350, 377, 308
 340, 363, 338, 358
 383, 393, 372, 319
 311, 311, 289, 235
 241, 222, 254, 230
 178, 202, 213, 207
 212, 206, 237, 218
 226, 246, 216, 208
 217, 194, 198, 181
 191, 206, 184, 200
 171, 165, 176, 177
 183, 196, 214, 204
 178, 175, 206, 199
 196, 224, 221, 239
 215, 247, 261, 283
 272, 286, 311, 291
 338, 316, 339, 356
 340, 358, 386, 371
 352, 402, 363, 422
 382, 429, 405, 394
 362, 383, 343, 321
 328, 320, 284, 276
 302, 294, 285, 271
 269, 252, 231, 248
 249, 231, 251, 220
 252, 227, 287, 294
 313, 330, 343, 341
 365, 336, 319, 303
 320, 290, 258, 302
 283, 269, 263, 293
 268, 294, 250, 248
 245, 231, 241, 190
 213, 187, 197, 183
 189, 195, 156, 192
 200, 179, 174, 187
 177, 178, 176, 189
 195, 207, 220, 255
 233, 221, 245, 257
 281, 280, 295, 330
 368, 359, 375, 431
 487, 523, 543, 516
 536, 568, 546, 530
 551, 492, 542, 504
 532, 485, 526, 545
 452, 500, 452, 415
 438, 429, 437, 406
 446, 421, 432, 372
 392, 367, 370, 304
 319, 305, 248, 283
 270, 248, 259, 269
 268, 211, 246, 224
 223, 187, 204, 183
 199, 186, 188, 154
 174, 164, 187, 189
 165, 176, 205, 199
 193, 212, 199, 194
 211, 220, 208, 194
 196, 185, 175, 203
 169, 197, 193, 196
 198, 201, 211, 264
 192, 207, 191, 200
 179, 184, 200, 185
 206, 176, 188, 206
 172, 211, 187, 206
 215, 245, 220, 212
 251, 257, 267, 283
 265, 266, 258, 274
 258, 284, 253, 258
 264, 245, 275, 307
 335, 292, 310, 331
 334, 369, 394, 393
 436, 381, 467, 470
 503, 419, 487, 477
 422, 444, 451, 450
 459, 413, 418, 457
 397, 391, 406, 377
 387, 390, 372, 360
 359, 358, 366, 346
 329, 329, 318, 316
 307, 311, 282, 286
 254, 269, 268, 273
 264, 242, 251, 247
 247, 259, 271, 225
 262, 251, 253, 249
 266, 260, 242, 221
 224, 226, 182, 209
 208, 211, 225, 238
 231, 250, 256, 274
 302, 288, 293, 297
 287, 332, 334, 338
 318, 319, 321, 296
 310, 292, 307, 291
 324, 320, 329, 300
 331, 324, 307, 310
 309, 281, 311, 329
 328, 346, 302, 388
 347, 442, 419, 416
 372, 340, 334, 314
 334, 309, 250, 284
 303, 304, 267, 297
 316, 296, 290, 311
 263, 265, 288, 251
 238, 233, 193, 212
 243, 227, 256, 219
 225, 234, 245, 251
 242, 232, 251, 246
 239, 233, 234, 256
 230, 257, 267, 258
 292, 281, 256, 269
 304, 257, 282, 271
 250, 233, 267, 253
 232, 227, 238, 229
 229, 239, 243, 213
 210, 207, 229, 186
 209, 187, 209, 193
 218, 198, 174, 211
 209, 200, 191, 199
 200, 199, 207, 200
 207, 244, 229, 228
 256, 282, 256, 276
 274, 315, 293, 288
 296, 292, 286, 266
 302, 335, 336, 310
 356, 369, 377, 361
 379, 361, 385, 346
 355, 390, 344, 331
 353, 390, 378, 421
 428, 412, 425, 414
 466, 395, 417, 389
 348, 381, 351, 356
 365, 316, 338, 299
 345, 330, 358, 329
 283, 298, 266, 288
 278, 243, 233, 215
 210, 264, 207, 204
 203, 206, 215, 198
 195, 196, 179, 181
 173, 186, 154, 184
 191, 179, 152, 166
 163, 179, 183, 176
 167, 172, 178, 173
 194, 173, 195, 174
 167, 163, 155, 156
 147, 182, 156, 141
 148, 136, 178, 167
 186, 154, 169, 164
 192, 185, 174, 187
 216, 198, 211, 206
 240, 234, 230, 233
 245, 219, 254, 206
 236, 228, 211, 199
 202, 166, 226, 236
 228, 240, 239, 206
 237, 195, 219, 190
 193, 183, 186, 184
 191, 223, 222, 189
 211, 239, 203, 200
 228, 224, 211, 206
 197, 192, 198, 161
 166, 172, 173, 161
 186, 179, 187, 168
 191, 171, 169, 150
 167, 167, 161, 187
 190, 149, 144, 141
 157, 147, 181, 154
 149, 176, 204, 197
 175, 173, 185, 184
 213, 206, 217, 218
 204, 242, 236, 252
 245, 242, 213, 215
 247, 195, 200, 202
 201, 215, 173, 181
 197, 219, 187, 203
 183, 188, 182, 197
 186, 179, 171, 182
 179, 250, 195, 180
 230, 202, 224, 247
 231, 234, 247, 222
 269, 268, 241, 255
 271, 223, 228, 246
 250, 192, 239, 215
 243, 261, 262, 272
 256, 224, 242, 247
 254, 250, 259, 244
 247, 213, 274, 251
 241, 243, 236, 225
 256, 236, 247, 201
 225, 194, 205, 194
 180, 204, 176, 215
 203, 192, 165, 184
 197, 158, 182, 176
 176, 166, 173, 180
 139, 175, 187, 182
 165, 175, 162, 160
 172, 186, 170, 157
 153, 162, 144, 142
 145, 168, 172, 154
 169, 180, 169, 170
 157, 208, 169, 213
 194, 215, 194, 194
 220, 207, 197, 194
 219, 235, 230, 291
 259, 272, 280, 306
 292, 308, 297, 291
 349, 321, 303, 314
 333, 328, 296, 319
 309, 344, 390, 379
 375, 364, 394, 398
 366, 391, 391, 443
 392, 392, 431, 441
 403, 406, 419, 392
 426, 360, 414, 450
 393, 385, 407, 397
 374, 383, 395, 355
 373, 338, 360, 339
 360, 376, 378, 362
 386, 381, 420, 437
 431, 477, 448, 414
 464, 405, 456, 435
 442, 442, 474, 439
 402, 399, 417, 434
 434
*END
*EOF