File: gsoc_xylib/samples/uxd/CDLY14F34.UXD
; \\Cdlhp16\home\diff\mesures\raw2006\CDLY14F34.raw(Diffrac Plus V1.01 file) converted by XCH V1.0
_FILEVERSION=2
_SAMPLE='Corindon BRUKER v4'
_SITE='France'
_USER='R. VERA'
_ATTACHMENTS_CODE=0
_GONIOMETER_RADIUS=250
_FIXED_DIVSLIT=0.600000
_FIXED_SAMPLESLIT=0.000000
_FIXED_DETSLIT=12.09
_MONOCHROMATOR=0
; None
_THIN_FILM='N'
_BETA_FILTER='Y'
_FIXED_ANTISLIT=7.870000
_ANALYZER_CODE=0
; None
_DATEMEASURED='07-Apr-2006 18:32:37'
_WL_UNIT='A'
_WL1=1.540600
_WL2=1.544390
_WL3=1.392220
_WLRATIO=0.500000
_ANODE='Cu'
; (Data for Range number 1)
_DRIVE='COUPLED'
_STEPTIME=33.44
_STEPSIZE=0.021811
_STEPMODE='C'
_START=4.500000
_THETA=2.250000
_2THETA=4.500000
_KHI=0.000000
_PHI=0.000000
_X=0.000000
_Y=0.000000
_Z=0.000000
_VARDIVERGENCE='V4'
_ANTISCATTER=0.000000
_DETECTOR=5
_HV=0.000000
_GAIN=0.000000
_LLD=0.000000
_ULD=0.000000
_DETECTORSLIT='unkn'
_AUX1=0.000000
_AUX2=0.000000
_AUX3=0.000000
_TIMESTARTED=14
_TEMP_RATE=-1.000000
_TEMP_DELAY=-1.000000
_KV=33
_MA=45
_RANGE_WL=1.540600
_3DPLANE=0
_GONIOMETER=2.980400
_PSDCHANNEL0=0
_COUNTS
      162       150       138       136       143       141       137       146
      123       116       119       126       109       134       114        98
      127       114       112       108       103       133       117       102
      112        97        98       111        87       111       102       100
      109       102        98        93       110        92        89        95
       93        70        76        99        99        87        97        89
      100        79        95        93        92        89        77        76
       88        90        88        74        90        87        81        77
       69        76        71        77        68        76        92        75
       78        74        80        90        82        64        76        58
       50        72        57        63        65        78        65        63
       83        70        64        69        66        68        56        77
       66        61        66        63        45        64        55        69
       66        52        61        58        70        66        51        61
       51        48        54        57        50        77        55        58
       46        52        43        43        42        44        41        43
       51        44        42        43        59        48        50        52
       33        44        32        37        45        39        39        46
       43        36        48        43        33        39        46        41
       47        45        34        39        44        56        37        59
       38        38        38        48        44        45        37        38
       42        37        43        39        33        31        49        32
       35        38        46        41        34        30        30        55
       43        40        32        33        41        39        39        43
       38        34        39        38        24        44        36        43
       43        27        40        36        31        35        36        43
       48        40        35        32        35        39        33        30
       32        30        44        38        27        37        34        39
       36        34        43        23        36        42        28        31
       35        41        32        36        51        29        32        33
       45        32        32        37        41        31        30        29
       43        31        46        26        36        34        23        29
       37        37        32        32        30        33        42        52
       33        38        33        35        31        27        31        33
       22        37        35        28        37        30        27        28
       23        28        26        27        41        38        27        35
       36        42        41        25        28        38        32        26
       29        31        29        27        30        35        18        27
       30        34        32        27        30        24        40        33
       33        26        28        32        33        27        32        36
       16        29        25        32        16        28        30        20
       36        27        35        21        19        32        39        39
       32        27        37        27        27        28        28        39
       22        21        31        24        35        30        20        30
       27        35        33        25        33        23        27        36
       33        25        25        26        34        25        38        31
       29        29        27        30        28        37        38        37
       25        28        24        36        38        23        27        26
       31        39        22        31        31        30        32        38
       24        23        32        34        31        32        25        36
       18        37        26        33        30        31        32        35
       27        21        38        27        22        25        28        34
       27        42        31        24        31        29        23        39
       35        31        37        27        24        22        29        15
       32        35        21        37        35        25        28        28
       21        31        24        30        36        27        30        34
       36        27        31        33        38        43        27        29
       26        29        27        28        35        35        24        33
       22        25        23        33        24        25        22        26
       32        33        30        24        36        39        27        18
       32        31        32        28        32        31        28        28
       26        30        23        29        29        34        29        29
       30        25        32        29        26        24        39        21
       25        25        35        24        19        43        28        24
       18        25        28        30        22        26        27        32
       28        29        24        30        37        27        22        32
       16        17        35        26        35        37        29        33
       24        21        33        24        23        33        30        19
       35        29        29        30        28        35        34        23
       29        23        31        31        34        41        23        30
       24        30        31        31        23        29        34        34
       22        23        30        29        27        24        33        22
       20        34        27        32        25        41        37        30
       32        21        24        22        29        27        34        40
       30        27        27        26        30        28        35        29
       31        29        27        43        29        35        34        38
       32        30        25        21        37        37        31        23
       31        38        41        33        33        35        31        37
       36        31        33        33        28        32        21        18
       27        26        31        27        22        38        26        45
       34        30        26        25        33        26        40        33
       39        31        28        40        39        24        30        32
       34        24        46        33        24        40        34        22
       31        46        39        29        39        33        37        31
       31        33        27        26        27        29        35        30
       42        30        37        38        36        27        30        30
       32        31        35        36        36        30        34        27
       31        19        36        42        26        35        38        39
       36        30        34        41        29        30        25        41
       35        44        32        27        29        38        35        36
       38        39        29        29        28        43        31        31
       34        28        22        39        26        32        35        23
       25        38        39        36        30        25        29        38
       33        24        29        40        40        29        28        34
       41        42        32        31        36        42        33        26
       40        30        49        30        35        32        33        39
       37        30        31        40        29        40        37        36
       38        36        36        40        37        28        41        39
       27        39        36        34        38        27        28        28
       31        38        31        31        27        37        36        38
       31        35        26        38        28        42        39        33
       29        39        34        42        25        35        30        30
       33        50        40        43        33        29        37        27
       34        38        43        29        38        25        44        23
       44        43        29        28        41        40        45        31
       36        34        35        44        40        44        29        37
       39        31        36        31        36        44        35        40
       39        41        31        42        40        35        31        33
       40        38        34        41        45        35        31        37
       45        37        32        25        38        33        45        30
       29        34        36        38        31        27        29        41
       32        38        51        36        40        28        34        32
       36        46        46        32        42        24        40        34
       30        28        40        38        36        43        29        30
       36        27        35        39        30        33        32        32
       32        53        36        28        28        33        48        31
       37        45        47        48        31        36        39        34
       46        32        43        46        42        36        29        46
       36        42        32        34        44        43        32        50
       48        53        46        51        54        57        47        63
       71       109       134       194       358       503       911       873
      449       486       365       160        98        59        56        48
       50        51        52        43        51        44        40        48
       43        42        37        31        42        37        44        35
       30        31        41        43        42        35        36        32
       34        26        52        40        39        39        42        42
       46        36        49        26        37        30        41        40
       32        38        39        42        27        44        36        32
       36        39        31        30        32        47        37        35
       34        38        31        31        39        34        44        36
       32        25        38        27        36        39        46        46
       32        43        42        28        35        35        30        38
       25        36        32        42        35        40        41        33
       39        37        39        32        27        38        28        31
       35        26        46        32        33        44        32        46
       32        32        30        34        32        36        35        33
       41        42        52        34        32        30        34        32
       32        36        21        38        48        38        37        32
       24        30        39        46        33        35        37        37
       39        47        22        41        34        27        34        33
       33        35        37        35        32        36        37        32
       39        31        44        32        38        37        38        29
       27        32        27        38        35        25        31        35
       30        43        34        29        41        29        33        24
       37        31        37        33        30        30        25        33
       39        42        29        34        29        35        34        32
       37        34        32        34        34        25        34        27
       37        28        26        25        33        26        31        29
       28        43        39        33        22        24        30        34
       31        27        30        31        40        36        31        35
       28        41        35        33        30        32        33        24
       27        33        42        24        27        32        32        30
       21        38        36        31        38        21        35        35
       39        29        37        29        27        31        31        30
       28        32        33        27        37        25        32        28
       32        30        31        38        29        30        40        33
       35        43        39        43        28        35        22        40
       38        37        30        31        30        23        26        33
       27        27        37        32        25        31        30        25
       20        35        31        33        30        33        32        27
       24        32        30        31        30        31        29        31
       31        23        26        29        26        27        34        30
       25        25        33        28        24        30        33        22
       23        23        22        27        23        33        24        24
       33        47        29        29        31        29        17        22
       33        35        36        24        18        30        31        21
       33        30        24        27        35        35        31        31
       24        25        20        20        24        35        20        38
       25        19        26        33        37        38        33        31
       29        37        38        39        35        31        42        28
       44        34        42        38        37        34        45        32
       42        33        50        34        44        37        29        44
       27        53        49        48        52        56        37        37
       46        47        53        43        41        64        57        76
       70        73        90       103       125       122       163       196
      198       318       568      1149      2323      3615      2921      1349
     1311      1925      1547       628       257       170       128       111
      101        81        61        72        62        64        54        62
       55        55        46        56        50        32        60        46
       42        40        28        42        51        42        42        34
       33        39        38        54        32        40        42        44
       45        44        36        36        31        48        48        41
       31        26        31        34        42        27        42        29
       30        32        30        23        34        37        42        34
       35        34        28        39        37        38        32        30
       31        30        29        46        34        34        35        19
       29        28        27        28        26        24        23        36
       38        36        36        34        34        31        38        41
       39        31        33        41        29        41        41        42
       43        39        49        48        43        55        66        67
       74        73       110       141       293       491       562       284
      154       239       306       221       108        65        52        50
       43        48        42        36        28        36        32        40
       36        33        38        36        29        30        28        32
       29        33        38        38        43        31        29        21
       31        36        38        36        32        34        27        38
       31        27        35        37        27        31        19        29
       26        28        39        34        34        34        47        31
       37        21        24        44        34        34        28        30
       24        32        31        21        34        27        25        42
       36        37        29        34        24        23        33        29
       27        34        23        39        31        41        25        39
       34        25        28        33        22        30        30        28
       25        34        32        26        27        26        35        30
       39        30        27        35        37        21        28        33
       32        30        31        26        41        31        25        36
       40        40        23        28        26        36        46        42
       32        19        27        31        28        38        27        34
       30        29        29        29        32        37        41        38
       33        30        27        35        35        35        33        36
       36        29        29        25        29        28        34        29
       33        35        24        45        32        34        35        24
       36        32        47        32        30        57        61       101
      162       155        77        56        78       105        97        70
       45        46        32        37        30        44        42        43
       28        34        48        48        32        34        35        39
       38        43        33        44        32        35        42        34
       37        32        30        37        25        31        30        34
       28        33        35        38        31        28        38        34
       31        37        33        33        27        34        37        31
       47        41        40        59        61        39        46        41
       63        61        74        80        82       101        92        93
      140       175       323       668      1302      2309      1862       808
      498       725      1086      1066       510       214       119        96
       88        63        67        74        57        50        63        56
       53        43        42        35        47        43        51        46
       43        51        37        42        42        39        46        42
       40        39        47        44        27        32        47        41
       34        41        30        28        32        44        27        33
       42        34        34        33        38        32        28        24
       35        37        38        26        39        39        35        30
       22        27        22        37        30        36        31        24
       28        35        30        35        31        48        35        42
       19        40        39        22        30        30        42        25
       27        25        31        30        25        28        29        29
       31        34        31        24        33        39        32        39
       28        29        34        29        29        31        28        34
       26        27        31        32        26        30        19        35
       32        37        31        30        37        46        45        47
       34        30        28        36        49        32        33        33
       24        32        33        26        38        16        27        27
       34        45        38        35        29        23        35        27
       24        39        39        27        27        34        24        34
       36        24        35        27        21        30        38        28
       42        26        34        34        36        42        30        36
       35        27        36        34        28        35        24        36
       33        28        42        20        29        26        38        30
       29        33        23        33        21        30        27        23
       32        46        22        33        38        29        31        29
       35        24        31        36        37        43        26        35
       30        25        24        22        35        25        31        20
       33        27        28        34        28        25        27        18
       28        26        30        32        30        27        27        28
       28        31        24        39        29        33        23        37
       24        29        30        35        27        32        31        28
       23        34        34        18        22        26        29        21
       29        16        33        28        19        28        27        20
       32        22        38        25        28        28        30        23
       32        31        28        34        21        18        32        31
       30        26        26        31        16        37        22        27
       29        31        25        30        31        28        25        30
       35        21        26        35        21        26        28        33
       34        30        20        24        25        32        26        33
       30        31        20        18        31        32        36        29
       28        31        36        27        26        29        30        33
       30        28        24        39        21        34        34        32
       23        19        25        29        34        27        24        27
       40        35        31        38        30        35        36        22
       37        27        25        28        26        30        38        33
       27        32        38        46        39        42        37        29
       18        26        29        42        28        31        40        23
       32        37        32        39        27        43        32        46
       31        29        31        30        31        26        30        38
       38        41        59        55        41        48        55        66
       62        72        53        56        83        79       102       146
      276       550      1034      1402       905       385       242       246
      457       713       644       338       144        84        68        73
       77        58        58        48        58        46        39        28
       42        42        29        33        35        35        36        42
       34        35        37        37        35        35        26        35
       39        31        31        28        26        23        34        37
       26        39        36        30        35        34        26        26
       32        43        34        33        32        24        36        33
       32        33        33        32        27        28        24        31
       28        27        24        26        31        36        24        24
       33        29        24        33        25        27        31        22
       30        29        19        24        26        16        37        17
       39        31        38        31        26        34        34        26
       29        33        39        35        32        36        27        37
       34        24        21        25        27        31        35        33
       25        30        28        22        23        38        24        25
       37        26        28        33        39        30        38        32
       33        36        36        44        39        34        37        33
       33        24        28        42        37        34        40        43
       32        40        45        37        34        38        42        33
       37        32        39        31        41        31        32        28
       35        45        38        28        41        29        39        40
       38        33        37        37        39        33        49        45
       41        46        44        48        50        34        47        34
       25        33        36        37        44        49        40        39
       37        49        52        44        51        49        53        52
       61        64        51        56        53        69        76        95
      103       139       141       128       136       155       159       160
      220       327       551      1017      2297      4309      4661      2676
     1138       722       732      1190      2141      2376      1609       673
      323       236       185       152       143       122       107        97
       87        74        77        55        61        82        67        51
       48        48        47        68        43        52        58        51
       44        55        39        42        49        28        56        34
       51        58        42        30        49        34        37        37
       38        49        35        39        28        41        44        35
       43        33        52        39        40        44        23        40
       44        40        41        34        39        35        33        44
       40        26        42        34        33        37        25        34
       33        32        30        39        35        43        35        50
       32        30        36        44        35        36        31        35
       34        35        58        54        67        84        68        44
       38        34        55        57        54        52        44        43
       34        31        41        30        32        40        42        27
       46        27        30        35        37        30        32        30
       37        36        40        36        32        31        35        36
       41        35        31        44        30        44        53        37
       37        26        42        44        34        44        41        43
       29        48        40        54        52        39        55        51
       49        56        75       100       104       105        97        87
      131       192       372       743       929       660       324       133
      129       178       236       405       462       281       142       115
       59        76        58        45        53        41        45        42
       33        46        32        43        39        40        38        38
       45        32        30        38        35        37        36        40
       40        36        30        37        44        40        39        37
       33        32        34        32        36        35        34        36
       34        31        42        39        43        31        30        29
       35        41        39        34        40        34        31        45
       38        37        29        29        28        31        34        31
       45        33        24        35        30        43        26        25
       32        38        30        34        30        26        35        37
       37        33        37        33        34        41        31        22
       26        22        32        39        35        37        43        29
       35        35        36        39        31        33        39        33
       32        30        31        31        23        29        24        27
       34        36        30        33        39        34        28        29
       33        36        33        41        27        39        25        24
       37        29        39        31        40        28        32        40
       40        44        37        39        39        30        36        33
       33        30        34        28        28        36        41        28
       32        34        45        41        33        39        30        35
       40        34        36        33        35        37        33        40
       36        35        37        32        36        29        27        34
       38        40        36        29        31        30        30        42
       34        30        32        42        32        33        26        38
       28        39        35        42        34        31        35        38
       41        52        41        39        42        40        36        49
       52        46        53        58        52        51        58        53
       59        54        64        56        54        61        84       128
      215       344       747      1118       836       476       213       133
      158       172       304       501       551       370       176        96
       87        59        54        47        46        43        38        52
       52        42        54        47        47        35        30        30
       40        48        49        42        42        42        39        38
       54        29        44        49        32        34        45        44
       28        52        38        34        39        32        39        30
       42        42        31        41        45        57        37        39
       44        50        43        44        50        50        52        58
       65        65        73        86        99       145       236       531
      958      1157       814       346       170       149       148       208
      347       540       574       362       185       100        74        72
       58        52        57        50        52        46        56        36
       40        55        41        30        47        30        35        42
       25        42        40        36        32        28        35        43
       36        37        28        43        41        40        23        29
       34        31        41        39        26        42        38        30
       20        31        33        46        29        37        38        32
       34        38        38        33        44        31        42        34
       45        27        31        23        36        39        37        35
       36        30        39        42        34        33        30        38
       29        24        38        31        34        45        26        36
       33        32        37        32        40        66        87        76
       51        40        37        36        33        48        59        57
       47        52        37        45        27        40        28        32
       30        29        30        35        32        25        33        32
       30        35        40        31        34        40        30        35
       34        29        31        29        24        28        39        39
       30        40        30        29        29        29        31        30
       41        33        33        32        30        26        30        18
       20        41        32        29        36        30        26        18
       33        45        23        26        47        30        37        39
       31        32        25        30        22        42        34        32
       28        30        39        24        28        30        31        31
       22        46        43        29        34        23        30        22
       38        30        31        24        33        27        33        33
       34        40        34        32        36        34        28        37
       31        29        37        44        43        26        21        37
       36        35        28        31        28        23        35        30
       39        31        25        38        28        41        33        32
       36        36        30        27        38        26        29        46
       30        36        31        31        27        32        25        31
       31        29        36        33        38        33        34        35
       33        41        46        41        46        36        29        37
       34        50        37        36        43        57        74       114
      123        86        85        66        47        64        65        45
       77        95        82        58        47        53        44        40
       46        35        36        32        42        34        34        42
       24        31        37        29        32        30        32        36
       35        43        45        42        42        40        46        30
       28        28        38        38        31        32        45        35
       39        33        39        43        36        40        37        35
       31        33        29        26        50        36        33        31
       43        34        37        39        38        33        39        43
       50        36        34        39        34        40        43        41
       34        34        34        63        38        36        33        46
       44        33        35        43        38        48        38        52
       47        65        60        53        63        72        66        74
       77        84        88       101        97        95       105       139
      168       232       334       671      1334      2141      2383      1646
      849       459       296       245       248       386       666       977
     1216      1080       631       439       469       653       929       741
      499       282       187       169       115       128       181       277
      407       427       334       181       113        83        65        67
       69        68        61        58        43        50        47        50
       43        67        52        50        57        41        44        47
       44        47        39        34        39        40        37        36
       51        33        30        40        28        35        28        37
       41        38        35        47        42        46        42        33
       29        36        36        39        52        37        33        32
       44        39        41        34        29        44        44        27
       41        39        44        38        28        46        21        36
       40        42        29        36        40        36        41        38
       40        26        39        36        27        29        42        30
       41        46        42        29        24        35        38        40
       32        29        32        23        27        39        28        30
       28        40        33        27        35        31        44        38
       37        32        35        30        35        39        39        41
       28        30        36        34        38        39        24        31
       38        31        36        37        42        41        51        55
       71        75        65        45        49        46        39        38
       38        56        59        82       147       185       176       113
       48        44        59        38        48        60        66        74
       96       104        74        53        48        40        34        35
       41        29        27        44        31        41        45        38
       27        31        32        28        34        34        35        27
       26        29        36        33        34        41        26        42
       35        33        37        29        31        34        27        46
       40        44        35        48        39        35        35        37
       28        26        52        27        43        32        22        32
       51        36        29        34        37        25        37        30
       29        40        41        29        24        36        35        37
       36        22        27        34        31        30        30        38
       33        35        44        40        33        31        27        36
       39        34        27        30        39        39        29        30
       37        30        26        30        23        38        37        40
       66        48        45        51        39        43        26        33
       34        36        33        35        43        45        36        28
       35        44        29        28        24        34        31        23
       32        34        36        38        31        31        29        39
       37        37        34        27        40        28        41        36
       30        29        28        27        40        33        47        40
       44        41        63        92       132       175       134        81
       49        50        52        31        35        37        47        72
       83        90        92        62        49        42        39        41
       35        29        40        36        35        32        24        41
       34        28        35        33        27        40        34        47
       39        41        36        29        32        39        36        37
       31        39        34        34        33        33        38        24
       28        35        30        35        27        31        30        40
       31        22        25        25        32        35        35        25
       39        24        39        28        24        29        43        33
       37        25        36        48        43        35        50        40
       35        40        36        47        39        51        65        92
      122       126        92        95        81       104       141       169
      166       133        91        75        78        86        71        58
       63        55        84        86       105        84        69        57
       36        39        37        32        47        36        44        43
       32        36        34        38        30        35        26        37
       28        39        31        30        26        33        35        23
       31        36        34        29        26        31        28        35
       32        31        38        26        37        39        31        33
       28        28        26        35        28        33        28        33
       28        28        37        36        38        32        32        37
       37        28        37        38        33        38        37        34
       34        28        28        37        30        37        32        34
       42        45        36        46        35        40        40        36
       44        43        44        47        47        62        47        66
       56        61        65        71        65       115       160       268
      495       683       707       526       280       159       119        96
       90        74        97       126       169       287       316       317
      256       160       113        78        65        73        38        45
       52        49        44        33        43        56        38        37
       41        40        39        36        37        34        39        47
       41        36        37        37        34        26        45        47
       31