File: gsoc_xylib/samples/uxd/CDLY15F2.UXD
; \\Cdlhp16\home\diff\mesures\raw2006\CDLY15F2.raw(Diffrac Plus V1.01 file) converted by XCH V1.0
_FILEVERSION=2
_SAMPLE='LaB6 - FF 0.01  avec AAS'
_SITE='France'
_USER='R. VERA'
_ATTACHMENTS_CODE=0
_GONIOMETER_RADIUS=250
_FIXED_DIVSLIT=0.600000
_FIXED_SAMPLESLIT=0.000000
_FIXED_DETSLIT=12.09
_MONOCHROMATOR=0
; None
_THIN_FILM='N'
_BETA_FILTER='Y'
_FIXED_ANTISLIT=7.870000
_ANALYZER_CODE=0
; None
_DATEMEASURED='10-Apr-2006 16:17:08'
_WL_UNIT='A'
_WL1=1.540600
_WL2=1.544390
_WL3=1.392220
_WLRATIO=0.500000
_ANODE='Cu'
; (Data for Range number 1)
_DRIVE='COUPLED'
_STEPTIME=33.44
_STEPSIZE=0.021811
_STEPMODE='C'
_START=4.500000
_THETA=2.250000
_2THETA=4.500000
_KHI=0.000000
_PHI=0.000000
_X=0.000000
_Y=0.000000
_Z=0.000000
_DIVERGENCE=0.100000
_ANTISCATTER=0.000000
_DETECTOR=5
_HV=0.000000
_GAIN=0.000000
_LLD=0.000000
_ULD=0.000000
_DETECTORSLIT='unkn'
_AUX1=0.000000
_AUX2=0.000000
_AUX3=0.000000
_TIMESTARTED=15
_TEMP_RATE=-1.000000
_TEMP_DELAY=-1.000000
_KV=33
_MA=45
_RANGE_WL=1.540600
_3DPLANE=0
_GONIOMETER=2.978800
_PSDCHANNEL0=0
_COUNTS
       18        19        36        29        22        34        28        24
       25        21        27        19        16        11        15        17
       14        20        17        17        14        13        13        11
       11        10         8         9        15        12         9        17
        7         8         6        11         8        11         8        10
        7        15         9        13         7         9         6        14
        9         8         6         6         8        12         8         7
        9         3        10         7         8         8         7        11
        5         6         6         7        10         9         8         6
        8         8        10         9         9         9         6         5
        6         3         7        10         7         9         7         8
       12         7        12        14         9        11        12         4
        9         6         7         8        11         3         6         2
        7        10         7        10        11         9         9         8
        8         6         6        13        10        11        12         9
       17        11        11         6         7        20         8        14
        8        14        10        12         9         8        14        10
        8        13         7        12         4        14        10        14
       11         8        14        11        11         7        11        11
       13         0        11        11         7        12        14         7
       10         9        17         7        13        11         8         9
       12         9         7        11         6        10        16        13
        6         7        11        11        14        12        10        11
       12        13         7        14         7        10         8        16
        9         3        15         7        11         6         7         5
        5         8        15        11        10         5         6        12
       10        11         8         8        11         9         8        12
        4        14         7         4         4         9         3        13
        6         9         7        12         3        10         5         4
        8        14         9         4         8         9         8         5
        8        13        10         7         7         9         4         7
       10         9         7         7         3         3         4         3
        7         8        16         7         4        10        11         5
        9         6         6         6         6         6         2         7
        5         4         7         4         6        10         6         6
        2         9         6         7         9         7         7         6
        9         6         5         5         8         7         4         7
        7         6         9        10         9        10         1         1
        6         9         4         5         8         2         7         6
        4         5         7         7        10         6         5         4
       13         4         4         7         5         7         8         5
        7         6         9         3         4         4         9         4
        2        11         9         9         6         4         8        11
        8         3         5         5         3         8         6        12
       10         7         9         9         1         4         5         6
        7         3         7         7         9         8         8        10
        3         7        10         3        12         9         9        12
       10         9         9        18         9        10         7         6
      123       162       268       479       620       397       327       217
        9        17         9        14        13        10        13        10
       13         9        11        11         6         4        13        11
        4        11         8         8         7         8        13         6
        5         3         9         3        10         7         8         5
       10        13         3         9         8         6         8         5
       10         5         4         8         3         8        12         5
        6         7         7         4         4         9         2         9
        6         6         9         6         7         7         8         6
        4         3         5         4         3         6         6         6
        4         3         5         6         7         6         6         4
       11         3         8        15         4         6         5         8
        8         5         8         6         5         3        11         6
        6         3         3         4         2         7         5         8
        1         4         6         3         7         2         2         6
        6         4         6         2         5         3         5         5
        6         7         9         6         4         5         8         3
        7         2         3         7         5         8         8         7
        2         6         3         7         6         4         6         6
        2         2         7         2         7         7         3        16
        5         9         4         4         4        10         5         8
        9         3         5         6        10         7         5        10
        4         3         4        10         2         8         7         4
        6         7        11         9        12         5         5         5
        9         6        12        11        12        13         9        10
       13        13        16        14        13        19        17        23
      344       639       708       480       320       384       322       159
       17        13        12        19        13        11         8        14
        6         9         7        10         3         9        10         8
       12         9        13         5         7         7         5         6
        8         8         5         9        10         5         9         5
        7         6         2         9         3        10         5         7
        4        10        14         4         9         8         9         5
        5         8         4         7         7         5         3         2
        5         5         5         5         8         6        10         4
        3         5         7         4         6        12         2         7
        2         7         5         8         4        16         7         4
        5        10         8        12         4         5         5         5
        1         6         6        10         6         7        13         4
        6         9         9         1         4         7         6        14
        4         6         9         6         9         3         9         9
        6         3        10         6         6         5         5         5
        9         6         2         3         2         6         5         4
        6         8         6         1         4         7         3         8
        9         5         9        10         4         9         8         9
        9         9        10        10        10        10         5        12
       16        38        66        82       190       284       272       145
       19        14        19        13         5        14         9        12
        7         6         9        10        11        10         7        13
        7         6         5         4         5         7        17        10
        8         9        12         8        10        13         7         5
        7         8        11         3         3         3         7        10
        6        10         5         6         6         8         6        11
        9         6        11         4         6        13         6         6
        9         5         5         7         4         8         5         7
        3        13         6         7         8         4         2         9
        9         4         5         7         8        10         6         5
        7         9        10         5         5         5         9         6
        5         8         8         6         7         9         8         4
        9         4         6         5        10        11         5         7
        8         5         7         2        10         7         4         9
        7        11         4        11         5         6         7         8
       11         5        10         8         4         3         8         5
        6        12        13        11         9        14        15        27
       91        89        55        33        21        12         9        14
        5        12         7         6         6         8         7         6
        6         5         7         6         6         7         7         4
       12         3         5        11         8         5         9         1
        5         6         7         5         6         7         8         9
        2         4         8         8         6         7         3         2
       14         6         5         4         1         5         1         4
        5         4         5         6         6         6         9         3
        9         4         9         6         7         5         8         5
        4         5         7         4         2         4         1         9
        5         8         4         4         6         7        10         4
        6         5         3         5         9         9        10         9
        7         8         5         6         4         4         8        10
        8         6         9         8         5         9        10        14
        8         6         7         9         8         7         7        13
       32        43        80       106       188       320       274       140
       21        20        11        18         9        14        14        10
        7        10        10        10         8         2        12         8
        7        10         8         8         6         3         5         7
        8         7         6         5         7         9         7         5
        3         8         6         7         6         3         7         7
        6         5         5         4         6         4         3        12
       10         4         7         6         6         8         3         5
        8         6         6         4         8        10        11        10
        5         4         5         6         9         4         6         4
        6         6         2         1         5         6        10         5
        7         7         2         5         4         7         6         5
        6         8         5         6         6         8         3         9
        7         3         6         7         3        15        13         9
        8        17        19        16        22        13        15        29
       43        53        73        81        75        35        27        12
        9         7         6        16         7         9        12         7
       11         6         7         9         4         9         4         8
        5         8         6         5         0         8         9         4
        4         3         5         6         8         7         7         2
        6         8         6         3         4         7         7         4
       10         5         3         7         7         4         3         7
        6         9         6         4         4         7         4         6
        9         9         3         5         4         7         6         6
        2         4         2         6         7        11         3         6
        3         5         6         4         4         6         6         8
        4         5         9         2         5         6        11         8
        3         6         9         7         5         7         5         4
        8         3         4         4         5         7         1         3
        7         5         5         4         2         3         4         4
       10         6         3         2         6         5         5         7
        6         1         5         5         6         8         5         8
        5         4         5         3         5         4         4         4
        4         7         6         5         5         6         5         5
        1         6         4         5         7         5         4         3
        5         4         3         5         7         3         3         3
        2         4         3         2        10         6         9         6
        6         3         3         8         5         4         1         6
        5         2         5         5        11         3         3         4
        3         8         8         4         8         5        10         8
        4         3         8         7         2         7         4         9
       11        26        48        51        43        40        22        20
       10         6         3        15         4         7         4         9
        8         5         6         5         5         3         9         6
        4         3         7         7         2         5         2         3
        7         9         6         5         6         2         6         8
        5         3         3         3         3         4         5         8
        5         6         6         3         4        11         7         6
        2         7         7        10         3         3         6         8
        4         7         2         9         8         4         3         7
        5         6         8         4         1         6        10         7
        4         9         2         1         5        10         5         0
        1         7         7         2        12         4         5         8
        9        11        13        12        16        25        28        39
       33        57        73        61        53        34        21        21
        5         4         5         6         5         8         6         5
        7         3         3         8         5         4         3         5
        6         6         7         4         2         1         5         3
        2         5         3         0         2         2         3         4
        5         4         7         3         6         8         4         3
        4         6         4         7         2         6         8         5
        2         6         1         4         3         5         3         1
        6         2         3         2         4         5         6         7
        4         2         7         4        12         4         9         6
        6        10         7         9         7         7         7         4
        8         6         8        11        13        13        23        31
       17        19        24        50        50        50        29        18
        5         3         4         4         9         8         8         6
        1         5         4         7         2         4         5         3
        5         3         4         3         4        10         6         6
        3         4         5         4         3         5         2         2
        8         7         5         5         8         5         5         5
        8         6         5         4         8         4         7         7
        8        12         5         4         2         3         7         3
       11         3         2         4         5         3         5         4
        4         5         5         4         7         6         5         4
        4         1         3         8         6         4         5         8
        7        13        15        24        28        55        86        70
       29        47        30        21        13         9         7         9
        4         7         3         4         8         5         2         7
        4         5         4         6         5         5         6         4
        3         5         3         5         8         3         5         3
        3         4         4         9         4         5         3         6
        3         4         4         5         3         2         1         4
        2         5         1         4         5         5         4         0
        4         4         2         1         4         4         3         2
        6         2         4         8         9         1         5         7
        8         6         7         1         8         5         4         9
        3         6         5         5         3         3         4         6
       11        13         5         5        12         3         4         9
        7         5         7         3         5         2         9         5
        3         3         6         6         4         3         5         5
        2         4         6         5         2         1         4         3
        7         4        10         8         7         7         5         8
        4         3         6         5         4         7         7         5
        5         2         3         5         2         6         5         4
        5         2         2         4         3         2         2         2
        6         2         3         4         5         6         5         5
        7         5         6         3         8         2         3         3
       10         4         3         5         4         7         2         6
       11        14         9        16        39        38        28        15
       19        21        17         9        17         4         5         6
        3         5         4         5         6         3         7         5
        3         2         3         5         4         4         1         5
        6         5         6         3        11         6         5         5
        5         9         3         5         5         8         2         4
        7         5         7         6         5         5         8         3
        4         1         2         4         1         5         9         4
        6         5         2         3         3         4         6         5
        6         3         7         5         3         2         2         6
        5         5         3         8         8        11         7         7
        8        16         8        15        16        18        15        31
       17        16        26        15        25        24        35        40
        6         5        11         5         7         3         1         7
        5         7         7         3         6         7         4         7
        6         2         4         3         1         7         5         4
        6         2         5         5         3         7         5         2
        3         4         6         4         2         3         9         3
        5         5         3         3         3         6         4         2
        7         4         1         1         2         2         3         3
        7         8         5         4         5         2         6         4
        3         3         5         4         6         2         6         3
        4         3         4         3         5         4         2         7
        3         0         8         4         2         6         7         3
        3         1         2         6         4         3         4         7
        2         5         4         5         8         7         4         2
        2         3         4         4         4         5         3         3
        3         4         7         4         3         5         2         3
        5         3         2         3         1         1         3         1
        5         5         1         3         2         4         3         4
        3         5         8         3         3         1         3         9
        5         4         6         5         4         3         5         3
        5         4         7         2         2         1         7         7
        2         2         3         3         8         4         3         1
        5        12        12        15        12        11        14         7
        5        10         6        10         9         7         2         6
        6         1         1         2         2         6        10         2
        3         6         2         3         6         5         8         3
        3         6         5         2         6         6         1         3
        2         5         2         4         2         6         4         3
        2         8         8         1         1         5         4         3
        4         4         3         4         0         4         4         1
        4         6         5         3         0         7         5         5
        3         3         2         4         7         5         2         1
        9         6         8         5         5         5         7         5
        6        15        11         9        21        15        17        23
       14        10         9        13        13        23        16        28
        9        12         2         5         8         3         3         7
        3         7         7         6         6         5         8         7
        4         5         4         2         3         6         5         9
        2         5         2         4         7         3         3         5
        3         6         2         8         5         7         5         3
        4         4         4         3         4         5         3         3
        3         3         3         2         3         2         4         6
        3         2         5         6         5         5         4         8
        6         6         4         5         3         3         4         7
        5        10         3         3         4         4         6         5
       35        45        49        43        25        21        15         9
       17        19        35        17        17        20        18         6
        4         6         3         5         2         5         6         4
        3         2         5         1         3         3         3         3
        7         3         3         2         8         6         2         7
        3         0         4         5         3         3         4         1
        3         2         3         1         5         3         2         5
        6         1         4         0         4         0         4         5
        3         5         2         1         6         4         2         3
        0         4         5         3         3         3         2         0
        2         1         4         3         2         4         5         2
        4         3         2         5         3         5         2         4
        3         9         5         2         5         4         3         6
        8         6         3         7         5         2         3         5
        3         2         2         4         1         2         1         0
        4         1         2         2         1         1         0         3
        0         4         3         3         1         6         4         2
        1         2         3         2         3         2         2         0
        1         0         3         1         4         0         3         2
        1         3         2         0         1         3         0         2
        0         1         2         1         0         1         2         5
        1         0         0         1         2         0         1         0
        0         1         2         1         3         1         1         0
        2         1         2         2         3         2         2         2
        1         1         3         2         1         0         5         1
        1         2         0         0         2         1         2         1
        1         0         1         2         0         1         0         1
        1         0         2         1         1         1         1         0
        0         0         3         2         1         2         0         0
        2         0         1         3         0         0         0         0
        2         0         0         0         1         1         0         0
        0         0         2         1         0         1         0         0
        2         0         0         0         0         0         1         1
        0         0         0         0         1         0         0         1
        0         2         0         0         1         1         0         0
        0         1         0         0         1         0         1         0
        1         2         1         1         0         1         0         1
        1         0         0         0         1         0         0         0
        0         1         0         0         0         0         0         0
        0         0         0         0         0         0         1         0
        0         0         0         0         0         1         0         0
        0         0         0         0         0         0         0         1
        1         0         1         1         0         0         0         0
        0         0         0         0         0         0         0         0
        0         0         0         0         0         0         0         0
        0         0         0         1         0         0         0         0
        0         0         0         0         0         0         0         0
        0         0         0         0         0         0         0         0
        0         0         0         0         0         0         0         0
        0         0         0         0         0         0         0         0
        0         0         0         0         0         0         0         2
        0         0         0         0         0         1         0         0
        0         0         0         0         0         0         0         0
        0         0         0         0         0         0         0         0
        0         0         0         0         0         0         0         0
        0         0         0         0         0         0         0         0
        0         0         0         0         0         0         0         0
        0         0         0         0         0         0         0         0
        0         0         0         0         0         0         0         0
        0         0         0         0         0         0         0         0
        0         1         0         0         0         0         0         0
        0         0         0         0         0         0         0         0
        0         0         0         0         1         0         0         0
        0         0         0         0         0         0         0         0
        0         0         0         0         0         0         0         0
        0         0         0         0         0         0         0         0
        0         0         0         0         1         0         0         0
        0         0         0         0         0         0         0         0
        0         0         0         0         0         0         0         0
        0         1         0         0         0         0         0         0
        1         0         0         0         0         0         0         0
        0         0         0         0         0         0         0         0
        0         0         0         0         0         0         0         0
        0         1         3         0         0         0         0         0
        0         0         0         0         0         0         0         0
        0         1         0         0         0         0         1         1
        0         1         0         1         0         0         0         1
        0         2         1         0         0         0         1         0
        0         0         0         0         1         0         1         1
        0         1         1         0         0         0         0         0
        1         1         0         0         0         0         0         0
        0         0         0         0         0         0         1         0
        0         0         0         0         0         0         0         0
        0         1         0         0         0         0         0         0
        0         0         1         0         0         0         0         0
        0         0         0         0         0         0         0         0
        0         0         0         0         0         0         0         0
        0         0         0         0         0         0         0         0
        0         0         1         0         0         0         0         0
        0         0         0         0         0         0         0         0
        0         0         1         0         0         0         0         0
        0         0         0         0         0         0         0         0
        0         0         0         0         0         0         0         0
        0         0         0         0         0         0         0         0
        0         0         0         0         0         0         0         0
        0         0         0         0         1         0         0         0
        0         0         0         0         0         0         0         0
        1         0         0         0         0         0         0         0
        0         0         0         0         0         0         0         0
        0         0         0         0         0         0         0         0
        0         0         0         0         0         0         0         0
        0         0         0         0         0         0         0         0
        0         0         1         0         0         0         0         0
        0         0         0         0         0         0         0         0
        0         0         0         0         0         1         0         0
        0         0         0         0         0         0         0         0
        0         0         0         0         0         0         0         0
        1         0         0         0         1         0         0         1
        0         0         0         0         0         0         0         0
        0         0         0         0         0         0         0         0
        0         0         0         0         0         0         0         0
        0         0         0         1         0         0         0         0
        0         0         0         0         0         0         0         0
        0         0         0         0         0         1         0         0
        0         1         1         1         0         0         1         0
        0         0         0         0         0         0         0         0
        0         0         0         0         1         0         0         0
        0         0         0         0         0         0         0         0
        0         0         0         0         0         0         0         0
        0         0         0         0         0         0         0         0
        0         0         0         0         0         0         0         0
        0         0         0         0         0         0         0         0
        0         0         1         0         0         0         0         0
        0         0         0         0         1         0         0         0
        0         0         1         0         0         0         0         0
        0         0         0         0         0         0         0         0
        0         0         0         0         0         0         1         0
        0         0         0         0         0         0         0         0
        0         0         0         0         0         0         0         0
        0         0         0         0         0         0         0         0
        0         0         0         0         1         0         0         0
        0         0         0         0         0         0         0         0
        0         0         0         0         0         0         0         0
        0         0         0         0         0         0         0         1