File: gsoc_xylib/samples/uxd/nist1976.uxd
; D:\cristallo\eva\nist1976.raw(Diffrac Plus V1.01 file) converted by XCH V1.0
_FILEVERSION=2
_SAMPLE='40KV-40MA,DS0.05,SekMono0.6S'
_+SAMPLE='This configuration file has been created by the Bruker AXS ConfigProgram imitating the old SAG-free format style for compatibility to'
_SITE='AXS GERMANY'
_GONIOMETER_CODE=1
; D5000 Theta/2Theta; Reflection Rotation
_SAMPLE_CHANGER_CODE=0
_ATTACHMENTS_CODE=0
_GONIOMETER_RADIUS=200.5
_FIXED_DIVSLIT=0.000000
_FIXED_SAMPLESLIT=0.000000
_SOLLER_SLITS='Y'
_FIXED_DETSLIT=0.200000
_MONOCHROMATOR=0
; None
_SOLLER_SLITS_2='Y'
_THIN_FILM='N'
_BETA_FILTER='N'
_FIXED_ANTISLIT=1.000000
_ANALYZER_CODE=0
; None
_DATEMEASURED='19-Oct-1998 15:41:22'
_RUNTIME=260020
_WL1=1.540560
_WL2=1.544390
_WL3=1.392220
_WLRATIO=0.500000
_ANODE='Cu'
; (Data for Range number 1)
_DRIVE='COUPLED'
_STEPTIME=20
_STEPSIZE=0.010000
_STEPMODE='S'
_START=20
_THETA=10
_2THETA=20
_PHI=0.000000
_DIVERGENCE=0.700000
_ANTISCATTER=0.700000
_DETECTOR=0
; None
_HV=912.389
_GAIN=100
_LLD=0.739646
_ULD=1.843540
_DETECTORSLIT='out'
_AUX1=0.000000
_AUX2=0.000000
_AUX3=0.000000
_TIMESTARTED=0.636000
_ROTATION_SPEED=30
_TEMP_RATE=0.000000
_TEMP_DELAY=0.000000
_KV=40
_MA=40
_RANGE_WL=1.540600
_3DPLANE=1
_COUNTS
       65        66        57        50        59        50        54        51
       46        54        62        48        46        65        51        52
       81        73        71        54        59        66        51        61
       58        43        65        59        67        48        81        64
       58        70        63        59        61        60        58        57
       66        49        62        74        73        55        68        68
       70        69        72        73        66        70        62        71
       63        70        59        57        75        54        65        58
       53        64        57        46        57        64        53        75
       65        52        67        65        77        50        55        62
       63        60        63        57        61        60        78        69
       85        54        62        63        81        69        67        84
       72        52        57        73        62        75        55        63
       60        55        66        68        64        52        66        70
       69        62        63        69        66        71        55        76
       62        84        76        76        84        69        53        69
       81        52        57        68        64        78        72        78
       81        75        62        69        70        67        57        69
       71        66        68        79        70        66        77        62
       57        59        55        63        73        62        66        70
       70        74        74        67        68        64        70        62
       83        78        69        66        63        63        84        64
       73       101        89       105       116       100       109       101
      725      1074      1699      2687      4429      6077      5971      3689
      129       115       120       103        93        95        82        89
       75        65        66        70        66        81        64        65
       75        71        76        83        71        59        60        77
       65        58        82        59        70        62        68        62
       78        73        66        70        83        68        53        69
       61        57        59        53        58        71        65        65
       56        64        59        60        68        59        56        58
       58        65        56        71        79        46        59        47
       54        54        58        65        63        50        74        54
       58        63        58        55        62        52        58        57
       47        64        63        45        50        64        66        62
       56        58        50        64        63        50        57        50
       60        58        55        58        42        49        62        52
       65        59        64        49        57        44        58        57
       47        45        50        43        54        54        52        64
       56        76        68        57        45        56        62        48
       52        69        60        44        53        47        52        52
       60        59        50        58        55        61        45        51
       64        53        61        35        54        47        51        59
       44        48        56        44        55        47        51        48
       64        51        41        44        45        47        52        45
       43        54        43        54        43        45        54        43
       52        48        52        52        49        59        38        41
       56        42        43        58        39        46        48        58
       52        45        53        48        56        50        48        53
       61        60        47        56        43        49        61        59
       55        48        47        33        44        43        40        36
       42        48        43        48        47        39        49        42
       47        35        45        42        41        47        42        34
       35        40        46        45        56        36        45        55
       45        39        50        40        46        40        48        41
       44        36        40        36        51        36        28        50
       38        39        39        43        38        45        36        44
       39        41        46        47        39        36        40        45
       33        40        50        50        56        35        35        40
       42        41        43        42        51        43        29        37
       36        48        36        48        32        43        37        31
       43        41        38        44        44        43        51        45
      157       142       143       170       205       237       240       259
    11183     16327     19034     14268      6796      3516      2408      2481
      200       194       142       161       145       139       121       110
       48        62        62        50        38        43        38        49
       65        47        24        32        41        42        46        41
       43        46        44        43        43        40        39        40
       41        23        27        48        48        34        32        34
       42        40        36        29        36        43        39        34
       30        41        46        35        35        24        48        42
       44        43        35        30        36        39        36        27
       40        32        55        33        30        38        36        37
       51        51        49        63        66        65        53        61
     2298      2471      1684       890       432       306       264       367
       55        50        50        59        55        38        34        49
       33        38        42        32        44        34        32        40
       40        36        25        30        39        45        37        41
       32        37        36        36        36        35        38        44
       43        33        25        32        35        23        40        35
       35        47        34        37        37        37        34        33
       28        36        37        39        48        35        20        33
       36        32        45        32        34        33        42        32
       37        27        33        32        41        36        37        36
       34        47        39        32        26        37        35        35
       34        27        22        41        40        36        27        30
       33        50        30        31        30        29        42        33
       36        37        33        28        30        29        35        40
       36        28        41        45        30        39        26        35
       27        43        29        36        39        35        46        43
       54        75       105       145       265       400       581       598
       49        37        44        53        40        50        39        39
       37        35        39        35        34        40        34        32
       39        36        30        32        39        36        38        42
       29        44        37        41        36        33        28        25
       32        36        43        44        30        48        45        39
       58        89        91        96       108       103       110       135
      547       795      1296      2211      3672      5953      8382      8685
      313       210       170       155       154       137       119       115
       50        34        42        56        63        46        42        41
       32        41        46        30        40        36        46        44
       26        44        29        30        29        33        30        37
       46        40        28        33        33        37        45        45
       37        39        39        34        45        43        37        24
       33        23        27        28        27        21        37        34
       26        29        37        26        30        33        31        33
       31        32        34        31        32        38        33        34
       42        41        41        24        27        37        32        34
       31        36        30        39        28        30        33        27
       90       119       109        77        34        42        49        47
       30        36        26        41        38        45        41        34
       26        47        39        27        28        34        28        37
       21        26        32        36        35        28        35        25
       34        36        27        19        34        33        38        27
       35        31        26        30        37        36        35        33
       36        33        36        40        35        33        37        38
       30        32        41        32        36        31        28        27
       29        33        30        30        32        27        26        35
       31        25        37        32        25        38        38        22
       31        35        32        33        39        25        24        32
       28        37        32        24        42        22        30        29
       33        33        34        28        29        33        24        35
       28        37        28        26        24        32        24        30
       31        38        37        32        26        25        27        34
       23        28        17        34        27        34        23        32
       33        27        35        36        32        41        28        28
       34        25        25        22        28        26        33        27
       28        23        27        26        38        29        30        32
       24        28        28        27        33        35        37        27
       31        19        41        24        28        30        36        29
       28        30        31        31        35        39        29        36
       31        33        33        29        42        24        25        29
       35        36        34        34        29        23        28        34
       31        34        39        38        30        34        40        43
       37        49        36        43        53        62        47        55
      122       124       104       146       163       170       242       337
      577       846      1268      1642      1867      1489      1037       628
       40        54        42        50        42        43        51        51
       33        34        37        38        28        40        39        38
       42        28        33        33        31        27        17        19
       48        39        39        21        29        26        40        28
       28        34        27        44        25        29        31        37
       29        17        38        33        42        34        32        39
       20        36        28        36        25        22        28        33
       33        41        32        27        25        29        39        32
       32        27        36        27        31        33        37        26
       28        28        25        33        26        32        28        24
       29        33        30        39        45        30        26        21
       23        33        33        33        32        29        29        32
       24        30        36        31        33        26        31        29
       29        34        43        33        31        29        45        43
       30        31        39        30        26        22        25        25
       38        29        36        35        30        30        37        47
       37        27        30        35        33        43        46        33
       53        53        58        56        62        50        76        48
      182       171       207       213       199       212       214       210
     2899      4565      7265     10527     13209     12927     10005      6017
     1460       891       639       478       385       316       284       204
       60        52        68        69        56        55        63        62
       40        41        48        47        41        38        57        42
       34        41        29        35        40        41        34        45
       26        34        20        23        28        29        31        32
       31        27        38        28        35        32        31        34
       25        33        41        32        30        27        26        28
       50        30        41        32        24        31        36        34
       37        24        32        29        31        44        49        45
       50        46        47        63        94        83        78        67
       37        23        32        27        36        27        29        32
       34        31        30        35        22        35        43        24
       30        30        34        32        36        29        32        32
       36        34        29        34        42        36        28        23
       66        82        67       110       137       163       202       206
     2455      2370      1722      1147       642       418       336       210
      115        90        88        87        52        59        56        56
       31        37        42        45        45        28        28        30
       36        37        36        33        47        30        31        26
       26        25        28        31        28        39        25        32
       27        24        28        25        30        33        29        39
       30        36        29        32        31        21        24        27
       28        25        27        35        25        21        33        30
       34        31        26        42        31        36        22        25
       27        36        26        28        40        35        22        27
       26        24        31        22        33        36        39        22
       35        22        32        28        22        33        33        31
       29        29        22        33        24        28        14        30
       34        29        34        25        29        31        43        29
       28        32        31        17        22        30        36        35
       30        36        32        28        21        33        31        29
       30        30        26        21        21        22        22        30
       24        36        28        32        23        31        24        36
       32        26        34        18        24        39        37        33
       30        19        28        34        29        37        34        36
       42        38        51        36        35        41        45        49
       90        56        61        69        72        81        95       117
      280       243       211       192       147       191       205       250
       58        67        54        56        64        51        48        47
       42        34        29        39        29        34        26        30
       27        39        38        29        31        23        32        46
       31        29        33        35        33        31        29        33
       36        38        42        53        48        33        29        43
       68        83        74        88        82        94        87       109
      493       352       254       173       205       180       191       179
       84        89        72        56        51        61        61        64
       31        38        23        39        30        33        37        37
       33        33        34        35        27        35        36        22
       31        24        33        33        22        35        28        28
       29        33        26        29        23        27        30        30
       23        27        28        22        33        33        32        24
       31        32        30        18        19        33        30        27
       21        23        30        23        26        36        36        32
      109       103        83        67        55        46        32        23
       39        29        37        28        39        28        23        30
       22        44        21        26        38        29        28        26
       28        25        30        24        22        34        33        29
       33        29        25        19        31        26        29        27
       14        21        32        37        25        37        21        27
       22        28        30        24        21        21        31        32
       24        27        23        32        28        21        24        19
       21        30        25        25        23        19        19        36
       18        34        22        23        26        25        32        34
       27        29        28        19        25        19        37        25
       20        27        22        26        23        30        22        22
       26        31        27        36        36        32        31        28
       27        29        40        34        31        31        30        32
       36        33        24        33        19        26        17        29
       29        29        40        28        31        33        26        26
       98       156       187       250       251       180       138       112
      115       118       109        85        91        63        42        35
       25        20        26        29        30        30        22        28
       23        26        21        27        37        37        29        27
       33        29        27        28        21        17        30        30
       18        27        31        26        24        24        30        20
       32        27        30        28        18        29        23        16
       32        30        29        21        30        35        23        35
       31        27        36        43        38        43        31        42
       58        57        63        72        65        81        66        82
      121       138       145       149       167       157       169       209
     2137      1410       985       711       508       473       396       372
      723       589       516       566       610       838      1063      1270
      160       192       228       302       376       495       578       757
       50        54        40        45        41        56        46        33
       34        32        31        47        29        35        28        37
       21        30        36        20        38        20        31        16
       25        15        26        24        30        28        28        23
       21        26        30        32        20        15        19        31
       27        27        19        37        25        22        16        29
       27        20        18        25        33        27        17        20
       26        23        27        20        26        20        23        23
       22        23        25        25        37        28        23        26
       28        25        21        32        25        19        23        24
       27        27        20        27        19        25        32        18
       32        26        26        21        26        31        25        38
       31        38        34        24        35        41        39        42
      109        75        56        60        47        42        40        35
       73        51        41        34        35        35        31        25
       34        23        25        24        24        26        20        17
       23        24        22        27        21        23        19        18
       23        22        30        23        24        20        25        26
       20        26        33        19        22        25        33        19
       20        25        19        17        25        20        16        25
       26        26        22        12        23        22        22        23
       18        27        20        25        25        20        12        16
       31        17        24        19        21        22        22        20
       28        31        34        31        63        64        70        72
       26        27        23        35        26        26        29        40
       16        22        26        21        25        24        25        22
       28        16        31        12        21        19        18        16
       16        27        24        24        22        17        27        27
      223       245       210       177       139        88        70        59
       84        92       113       115        88        88        69        40
       19        24        23        15        20        24        26        21
       21        22        18        27        22        29        30        29
       15        26        19        22        24        22        27        33
       16        30        21        16        21        20        21        22
       24        16        26        22        27        25        24        20
       25        34        18        16        20        28        25        19
       37        38        53        54        59       104       112       156
      254       251       167       142       121       108        89        73
      122       109       134       147       109        95        70        62
       27        28        20        26        19        21        16        24
       19        26        19        19        21        24        10        16
       16        25        27        21        21        18        21        16
       23         9        19        14        20        20        24        19
       25        30        14        18        27        25        21        23
       24        15        20        22        22        19        23        23
       31        22        25        29        24        27        37        32
       31        24        29        35        44        33        30        48
      154       209       255       377       509       620       858      1026
      102       109        85        99       115       124       151       197
       53        65        47        39        45        32        38        30
       26        35        19        21        29        19        23        23
       19        21        16        23        31        22        21        18
       16        23        14        27        21        30        26        25
       38        27        21        28        23        21        38        48
       49        68        85        98       109       158       219       302
       59        64        61        67        62        64        67        67
       80        71        64        73        76        93       149       154
       47        38        42        33        47        38        47        52
       55        50        34        29        30        34        22        37
       24        24        19        25        25        14        17        18
       15        19        22        25        20        29        19        21
       21        22        17        20        13        14        18        18
       18        23        17        22        20        24        22        15
       14        17        28        21        16        26        17        21
       19        17        24        10        21        16        21        12
       24        23        27         7        16        10        15        14
       17        26        18        10        21        15        18        18
       16        17        16        21        14        23        17        15
       17        15        23        25        31        18        21        12
       15        19        12        18        14        13        19        35
       20        14        25        23        27        21        25        21
       19        40        21        23        18        25        27        19
       28        31        26        27        36        27        27        34
      108       128       162       194       275       330       462       650
       64        80        59        72        80        63        67        80
      106        94        89        68        50        39        52        53
       23        20        15        13        26        22        20        21
       23        19        23        19        25        19        15        21
       18        20        20        21        23        24        20        17
       16        15        13        20        14        15        24        22
       23        11        30        20        24        18        19        24
       20        24        20        21        22        21        18        15
       14        20        12        16        18        16        10        18
       14        15        16        15        14        17        18        16
       21        16        19        19        21        19        16        20
       11        27        24        16        21        13        15        16
       22        25        32        33        28        37        37        58
       20        23        25        22        28        15        27        27
       38        49        35        36        25        18        21        33
       16        27        19        12        16        20        20        17
       14        17        16        23         8        13        18        23
       21        25        17        25        21        15        10        19
       12        26        18        20        13        22        16        27
       16        17        17        18        13        20        20        17
       15        25        30        16        21        27        22        16
       26        35        29        20        30        19        35        19
       26        31        28        25        30        27        37        28
       60        84       108       127       132       147       201       222
      275       233       176       161       136       125       114        94
      440       559       552       571       561       506       421       340
       49        46        39        26        43        26        33        28
       19        22        23        16        21        23        12        22
       27        18        18        28        27        24        12        26
       11        22        25        20        16        19        20        18
       14        18        33        29        22        19        22        15
       64        56        46        44        42        42        32        24
       31        21        18        27        36        25        28        50
      121       126       116        88        68        64        46        43
       24        35        26        28        30        39        28        26
       28        22        20        25        17        21        19        23
       15        16        17        16        25        21        21        15
       21        14         9        18        16        20        23        25
       22        21        17        24        22        31        17        22
       12        21        21        19        14        16        16        12
       23        22        15        29        13        12        16        12
       25        23        13        10         9        17        13        17
       19        15        17        19        17        18        22        20
       21        22        22        15        11        24        12        25
       27        17        23        22        13        16        29        21
       21        13        16        18        16        19        17        21
       11        18        20        20        29        18        21         9
        7        17        13        14        17        19        19        16
       22        27        17        11        16        22        15        19
       14        13        19        17        18        25        16        18
       13        19        11        16        13        19        11        21
       19        24        20        25        15        20        25        15
       18        23        20        17        18        14        22        24
       19        20        14        17        19        12        16        26
       16        14        18        28        12        22        24        21
       20        13        16        22        25         5        13        19
       19        22        24        13        23        17        26        18
       16        19        24        17        27        19        15        20
       21        14        21        15        26        17        18        17
       35        26        32        21        25        30        23        31
       30        53        32        24        53        57        44        53
       32        24        19        26        32        17        18        23
       36        29        26        31        29        28        26        20
       20        24        26        17        19        20        22        16
       17        41        29        32        28        26        36        27
      205       181       175       129       121        97        83        67
       34        28        30        32        38        33        33        33
       58        53        40        31        40        31        29        31
       22        24        25        20        15        23        16        17
       24        24        19        10        18        21        26        25
       23        15        18        16        15        17         9        16
       20        14        16        20        12        21        16        21
       22        20        12        20        20        19        10        16
       23        14        15        20        17        20        17        17
       28        22        22        15        24        21        21        13
       12        16        19        17        20        23        23        26
       22        28        16        18        19        21        32        23
       25        26        33        32        43        36        34        34
      105       112        84        60        59        34        35        50
       28        31        31        34        28        30        62        42
       39        45        36        24        34        30        17        31
       24        21        19        20        17        14        23        23
       17        21        27        21        32        19        22        17
       37        27        23        37        22        22        19        22
       23        17        26        25        24        30        21        18
       36        39        41        38        35        30        39        51
      184       229       259       331       336       372       418       381
       62        72        64        78        74        67        70        77
      425       566       652       789       913      1003      1060      1099
      131       116       123       103        98        89        66        85
      255       264       316       376       391       416       434       407
       56        47        44        40        43        47        33        44
       33        27        28        30        21        24        29        27
       44        60        60        57        57        69        67        98
       66        55        45        49        48        31        37        31
       24        42        39        47        48        45        50        67
       34        48        37        29        36        26        32        21
       17        24        30        19        20        19        18        26
       21        14        12        15        24        17        18        19
       18        21        18        21        26        16        20        28
       27        24        14        21        23        22        22        12
       17        20        20        17        13        11        23        17
       17        20        21        18        17        20        24        14
       29        23        23        28        29        24        24        35
       22        18        21        27        17        19        22        16
       26        26        27        18        22        15        24        29
       19        19        28        19        19        22        18        16
       13        18        23        24        20        20        25        12
       19        19        18        24        23        19        20        25
       24        19        21        30        23        24        27        26
       24        30        29        32        31        26        31        23
      125       138       134       103       108        91        76        69
       20        22        28        15        24        26        20        25
       55        56        61        67        83        59        58        51
       22        25        19        23        19        21        18        16
       21        25        24        15        27        22        26        34
        9        23        22        18        22        26        16        20
       21        22        20        24        24        16        21        16
       13        20        24        18        24        21        15        19
       12        25        26        14        21        31        17        24
       18        22        29        26        21        29        25        21
       25        38        37        32        47        56        52        57
       69        59        58        50        35        36        34        43
       24        33        24        22        19        23        25        38
       62        72        67        49        50        49        53        39
       21        26        23        14        27        29        23        21
       21        26        27        19        34        20        20        22
       26        21        19        22        22        27        18        29
       34        23        23        19        29        25        18        30
       27        17        25        23        19        27        27        20
       31        17        25        25        17        38        30        22
       25        25        30        25        41        24        21        23
       29        26        22        28        34        27        29        26
       46        29        48        52        47        41        54        52
      198       241       265       288       355       431       522       602
      189       185       160       151       130       127       123       108
       70        58        59        83        69        61        83        98
      352       341       303       263       279       252       189       181
       45        36        34        39        46        41        40        37
       34        30        34        29        31        34        26        29
       28        28        26        31        27        26        23        23
       24        31        24        23        39        31        20        30
       19        24        42        43        29        43        41        45
       93       112       101       115       150       175       182       231
      206       179       165       143       155       122        90        99
       48        50        50        45        48        39        52        65
      190       200       228       225       237       235       222       198
       64        54        74        51        55        45        54        55
      134       131       143       172       215       238       260       294
      450       384       310       324       292       216       205       173
       64        58        55        65        74        54        57        52
      197       260       283       302       313       368       351       371
       69        78        57        73        66        75        53        50
       35        32        39        38        39        40        42        46
       31        28        32        39        19        22        29        33
       43        56        45        44        43        43        43        40
       32        34        31        28        25        32        28        32
       34        26        27        22        27        21        32        24
       34        36        27        34        30        23        21        32
       25        17        26        24        26        34        24        27
       22        25        30        19        21        15        43        19
       22        27        22        26        21        24        25        26
       17        25        23        21        27        21        24        18
       20        15        22        22        26        16        25        17
       27        35        18        43        22        21        29        29
       27        28        28        25        27        16        29        27
       21        30        24        27        31        25        18        24
       22        25        26        29        32        25        42        37
       44        45        49        42        69        65        57        52
      241       229       296       341       393       404       499       563
      222       196       174       144       137       119       129       103
       53        46        38        32        43        41        51        43
      148       131       158       205       213       223       260       261
      113        99        90        93        74        73        61        67
       32        26        38        35        31        28        32        29
       27        26        39        26        28        21        22        26
       29        20        23        26        30        29        27        31
       23        28        24        21        15        27        20        22
       21        23        34        23        23        25        30        15
       23        13        16        28        20        27        19        27
       21        22        23        20        26        26        19        27
       24        26        20        14        20        30        23        29
       19        28        24        22        28        14        23        23
       30        25        33        28        20        36        25        25
       21        21        23        28        28        22        21        22
       24        22        17        26        22        19        25        21
       26        26        26        27        25        17        35        30
       29        24        23        26        22        16        15        23
       19        30        27        25        23        23        29        28
       28        33        22        41        33        39        28        33
       45        45        44        55        41        49        41        60
       27        32        26        27        18        28        32        36
       27        35        27        28        25        27        26        24
       35        39        30        38        34        36        41        48
       53        59        51        59        51        64        59        63
      242       279       285       347       354       364       393       438
      155       124       118       122       114       103        86        94
       47        39        50        39        46        45        38        42
       54        63        64        73        67        87        91        96
      224       212       174       169       163       151       149       160
       58        40        44        42        33        36        34        42
       22        30        33        30        31        27        24        26
       22        27        23        18        25        30        26        30
       24        26        25        33        20        29        29        31
       27        32        32        25        34        23        33        29
       34        30        22        45        36        29        36        43
       52        51        45        50        54        54        59        64
      254       314       345       362       392       375       409       404
      139       133       136       107       103        92        92        82
       49        49        37        35        42        48        34        45
       46        38        47        59        55        51        59        55
      186       162       191       219       195       187       195       197
       72        66        66        53        61        67        48        42
       32        28        33        37        27        44        31        28
       27        37        23        30        30        31        42        35
       26        23        21        33        33        25        31        39
       22        31        18        28        28        27        31        19
       26        28        30        26        25        31        22        23
       28        17        34        22        23        31        35        31
       25        32        43        27        31        32        36        30
       46        35        41        49        57        53        31        57
       38        47        40        41        35        49        41        43
       39        42        33        33        32        32        44        39
       69        47        45        52        48        72        57        62
      147       160       166       168       183       198       178       195
       95        95       103        90        79        83        98        90
       87        96       103        89       100       112        87       111
      300       298       333       308       364       387       480       471
      934