File: gsoc_xylib/samples/uxd/sample6.uxd
; C:\httpd\HtDocs\course\content\week-1\sample6.raw - (Diffrac AT V1) File converted by XCH V1.0
_FILEVERSION=1
_SAMPLE='BOB 529'
_WL1=1.540560
_WL2=1.544430
_WL3=1.392600
_WLRATIO=0.514000
_ANODE='Cu'
; (Data for Range number 1)
_DRIVE='COUPLED'
_STEPTIME=37
_STEPSIZE=0.020000
_STEPMODE='C'
_START=3.990000
_2THETA=3.990000
_THETA=0.000000
_KHI=0.000000
_PHI=0.000000
_COUNTS
    29285     31033     32827     33370     31807     28817     24784     20946
    10086      9840     10105     10146     10129     10107     10252     10242
    10624     10816     10995     10868     11084     11126     11391     11524
    13309     13436     13614     13912     14248     14634     15108     15176
    19512     20131     20742     21584     21917     23137     24211     24788
    35951     37832     39533     41565     43575     45558     47712     50078
    78022     80666     83387     84905     86822     87543     86826     86333
    62366     60286     58108     55476     53693     51043     49115     47688
    35317     34027     33067     32305     31169     30318     28951     28351
    21724     21244     20740     20178     19478     19097     18383     18108
    13845     13686     13270     13020     12628     12443     11996     11679
     9921      9717      9535      9667      9379      9521      9284      9148
    12040     12970     14505     16107     18730     20580     22469     23583
     9491      8149      7172      6400      5956      5777      5607      5379
     4653      4562      4591      4730      4578      4474      4425      4323
     4506      4300      4521      4504      4525      4520      4490      4511
     5705      5893      6357      6644      7125      8023      8833      9485
    31550     35100     40601     41921     39265     34766     28914     21861
     3465      3409      3269      3286      3339      3289      3207      3216
     3073      3132      3017      3075      3015      2979      3157      3069
     3055      2969      3084      3016      2962      3039      3075      2928
     2955      2983      2931      2843      2884      2905      2919      2916
     3017      3040      3213      3356      3386      3724      3919      4068
     3990      3734      3686      3408      3342      3182      2942      2879
     2673      2661      2624      2673      2737      2633      2725      2687
     2701      2777      2744      2650      2648      2656      2564      2585
     2551      2542      2535      2606      2580      2572      2603      2679
     3121      3249      3524      3675      3930      4257      4408      4754
     4172      3608      3216      2821      2718      2682      2501      2508
     2500      2513      2609      2641      2444      2568      2701      2715
     2882      3030      3038      3087      3147      3118      3208      3516
     4970      5016      4506      4178      3781      3322      3127      3048
     2677      2712      2760      2632      2643      2567      2655      2748
     2710      2716      2668      2731      2735      2662      2672      2677
     2623      2647      2599      2635      2619      2665      2587      2577
     2654      2580      2634      2536      2625      2551      2627      2580
     2769      2718      2781      2770      2704      2796      2962      2811
     4500      5006      5712      6413      7262      7952      8582      8689
     3078      2914      2765      2727      2710      2581      2740      2711
     2544      2645      2600      2640      2661      2581      2568      2566
     2688      2655      2737      2720      2682      2631      2769      2796
     2906      2841      2855      3008      3087      3040      3173      3225
     5328      5785      6223      6668      7203      8189      9254     11233
     7275      6261      5672      5257      5070      4870      4617      4477
     4003      3910      3919      3954      3811      3670      3822      3673
     3263      3288      3251      3176      3059      3024      3204      3214
     3182      3139      3302      3379      3426      3564      3874      4255
     7648      7616      6846      5995      5482      4979      4741      4887
     9019      9261      9150      9245      9387      9281      9115      8945
     6814      6314      6352      6164      6011      5896      5919      6034
     7456      7521      7561      7257      7255      6900      6607      6193
     7087      7842      8453      9429     11039     12925     15604     19274
    25561     19966     14924     11035      7968      6395      5326      4757
     3942      4057      4056      4067      4008      4116      4217      4301
     3927      3901      3881      3794      3780      3706      3622      3658
     3556      3448      3440      3469      3472      3557      3581      3470
     3749      3740      3647      3735      3783      3672      3617      3584
     4450      4619      4795      5108      5484      5900      6574      6846
    13108     12144     11255      9807      7882      6591      5576      4895
     7576      8603      9664     11240     12007     12179     11883     10914
     4092      3923      4013      4008      4038      4027      3903      3866
     4187      4328      4232      4369      4411      4405      4514      4587
     5518      6018      6278      6738      7466      8456      9966     11209
    15576     13702     12090     10757      9596      8902      8276      7834
     6584      6652      6862      7087      7886      8410      9234      9860
    13480     11920     10785      9726      8727      7784      7427      6784
     4501      4418      4401      4461      4435      4414      4297      4329
     4318      4287      4353      4323      4294      4228      4267      4213
     5614      6287      6961      7929      8954      9585      9882      9847
     4059      4100      4046      3968      4027      4004      3954      3841
     3971      3813      4024      4033      4080      4160      4279      4569
     4549      4349      4166      4063      4060      3989      4016      4035
     3951      3957      3875      3908      4003      4003      3988      3924
     4191      4113      4424      4344      4437      4677      5043      5352
     6059      5795      5406      5417      5163      5142      5102      5551
    10254     10780     11311     12235     13621     15326     16767     17496
     9177      8553      7897      7490      7272      7114      7038      6888
     6536      6428      6473      6334      6293      6269      6303      6302
     6561      6549      6613      6470      6594      6727      6819      6771
     7147      7223      7288      7327      7435      7520      7558      7521
     8136      8331      8263      8260      8517      8401      8682      8634
    10772     11387     11781     12689     12804     12939     12610     11898
     6907      6938      7117      7433      7920      8692      9705     11225
    41538     38483     34977     31211     26369     21084     16817     13646
    17150     16963     15806     14342     12961     11608     10092      8796
     4094      4031      4111      3917      3865      3838      3931      4040
     4749      4506      4584      4412      4390      4017      4031      3902
     3877      3669      3651      3630      3642      3637      3497      3562
     4479      4828      5462      5638      6105      6499      6376      6128
     3686      3579      3519      3411      3351      3365      3299      3160
     3212      3116      3178      3156      3102      3080      3028      3099
     4603      4983      5801      5998      6237      6153      6352      6035
     3804      3634      3602      3691      3673      3661      3652      3563
     3572      3711      3692      3766      4000      4114      4219      4368
     5373      5376      5375      5530      5604      5567      5660      5800
    10036     10693     10918     11108     10411     10035      9481      8590
     5839      5948      6086      6186      6326      6520      6572      6522
     5829      5716      5605      5549      5710      5643      5700      5803
     5620      5647      5686      5649      5699      5762      5848      5722
     9919     11108     12468     12877     12268     12127     12524     12554
     7720      7728      7393      6940      6879      6769      6880      6860
     5282      5281      5033      5042      4856      5043      4958      4942
     4500      4511      4419      4455      4412      4393      4327      4463
     5193      5147      4936      5007      4882      4749      4650      4556
     4092      4188      4120      4032      4185      4155      4069      4061
     3892      3955      3958      3922      4004      3995      3906      3933
     3943      3856      4084      3986      3993      4053      4017      4006
     3890      3909      3926      3805      3982      3937      3928      4193
     4073      3878      3791      3775      3744      3730      3737      3611
     4380      4437      4533      4541      4551      4465      4339      4408
     5932      5959      5747      5670      5285      5279      4972      4700
     3946      4242      4163      4315      4355      4232      4293      4000
     3484      3495      3543      3379      3394      3462      3384      3280
     3304      3280      3272      3353      3334      3326      3440      3382
     3481      3403      3392      3424      3373      3301      3343      3252
     3198      3217      3325      3311      3325      3256      3440      3444
     3417      3316      3371      3451      3326      3466      3516      3517
     3323      3400      3356      3509      3438      3469      3454      3350
     3767      3759      3664      3657      3827      3721      3561      3611
     3371      3363      3411      3408      3342      3495      3331      3425
     4000      4176      4334      4485      4483      4400      4269      4327
     3764      3902      3887      3924      4068      3992      4029      3889
     3673      3628      3605      3731      3993      4241      4691      5218
     5933      5714      5043      4720      4417      4054      3570      3470
     2909      2976      2866      2983      2929      2959      2986      3159
     3008      2869      2912      2854      2779      2707      2708      2642
     2556      2732      2591      2507      2553      2683      2589      2605
     2591      2582      2654      2630      2684      2682      2657      2644
     2953      2887      2820      2731      2749      2672      2772      2710
     2509      2470      2405      2429      2310      2343      2344      2299
     2360      2208      2326      2321      2230      2288      2220      2244
     2169      2134      2164      2177      2195      2241      2142      2134
     2178      2158      2146      2083      2221      2040      2158      2214
     2375      2500      2628      2653      2641      2703      2643      2555
     2244      2231      2228      2249      2195      2137      2302      2208
     2126      2124      2138      2200      2150      2093      2108      2102
     3242      3417      3343      3168      3171      3074      3056      2986
     2247      2182      2108      2139      2024      2117      1972      2057
     2087      1998      2096      2089      2140      2086      2124      2135
     3086      3438      3648      3891      3929      4179      4598      5296
     4059      3773      3419      3330      3070      2986      2836      2799
     2354      2475      2448      2544      2503      2456      2457      2458
     2276      2386      2381      2430      2359      2546      2542      2528
     2360      2340      2211      2276      2278      2267      2249      2232
     2311      2213      2316      2359      2495      2633      2942      3383
     6967      7079      6984      6688      6474      6032      5784      5604
     3147      2745      2736      2625      2492      2408      2372      2355
     2522      2496      2529      2463      2459      2376      2480      2413
     2185      2137      2170      2169      2277      2350      2475      2597
     3750      3656      3418      3319      3139      3098      2927      2848
     2193      2136      2133      2134      2105      2180      2208      2268
     2639      2741      2844      3029      3029      3083      3193      3092
     3149      3228      3308      3200      3223      3254      3207      3213
     3370      3366      3621      4101      4428      4662      5070      5455
     4372      4120      3918      3512      3280      3002      2922      2774
     2654      2743      2723      2746      2701      2664      2644      2683
     3600      3895      3973      3975      3975      3873      3859      3992
     3086      2782      2749      2761      2787      2652      2636      2559
     3158      3094      3056      3088      3238      3294      3235      3004
     2671      2621      2578      2504      2461      2347      2438      2472
     2242      2359      2322      2357      2351      2364      2370      2396
     2261      2213      2344      2280      2270      2266      2345      2401
     4271      4244      4346      4297      3973      3811      3688      3548
     2742      2759      2715      2791      2667      2663      2642      2544
     2400      2299      2203      2226      2215      2230      2191      2157
     2212      2107      2254      2265      2156      2193      2153      2208
     2173      2143      2170      2278      2326      2182      2283      2254
     2123      2163      2256      2201      2250      2230      2233      2355
     2349      2434      2547      2496      2342      2346      2324      2285
     2379      2443      2402      2338      2311      2436      2445      2522
     4809      4583      4380      4012      3725      3805      3608      3550
     2267      2195      2147      2132      2170      2252      2192      2176
     2591      2777      3142      3672      4049      4509      4818      5115
     3984      3572      3448      3304      3152      2985      2827      2706
     2752      2769      2803      2740      2681      2594      2691      2585
     2723      2855      2812      2879      3032      3164      3185      3388
     5897      6195      6408      6582      6662      6661      6561      6569
     5428      5472      5280      5276      5226      5198      5268      5091
     4846      4850      4715      4555      4564      4586      4502      4448
     3298      3270      3346      3256      3058      2946      2910      2792
     2481      2494      2441      2409      2391      2558      2445      2371
     2468      2440      2496      2358      2336      2265      2411      2293
     2322      2309      2319      2303      2201      2398      2337      2320
     2826      2801      2908      2874      2847      2823      2789      2763
     2311      2384      2188      2180      2233      2136      2165      2128
     2012      2003      2085      2133      2149      2055      2045      1988
     2369      2419      2326      2332      2176      2215      2168      2249
     2009      1963      2082      2161      2156      2222      2207      2382
     2492      2433      2429      2307      2412      2375      2268      2121
     1923      1839      1994      1972      1993      1998      1964      2046
     1957      2006      2031      2123      2059      2005      1979      2053
     2147      2075      2007      2051      2047      1892      2022      1874
     2002      2150      2192      2281      2300      2265      2309      2346
     2860      3002      3061      3081      3228      3181      3333      3473
     3598      3693      3618      3474      3310      3113      3024      2832
     2231      2330      2159      2182      2189      2221      2241      2220
     2019      2038      1993      2020      1963      2039      2018      1976
     1997      1955      1986      2047      2167      2201      2252      2353
     2677      2602      2643      2582      2590      2398      2565      2499
     2198      2098      2205      2127      2057      2091      2179      2046
     2219      2137      2186      2100      2135      2100      2230      2073
     2114      2032      2044      1994      2074      1933      2023      2024
     2294      2440      2439      2470      2546      2623      2567      2590
     2676      2496      2550      2433      2552      2450      2483      2539
     2232      2384      2430      2389      2369      2520      2553      2494
     2845      2764      2742      2686      2766      2806      2811      2842
     2315      2378      2294      2316      2350      2397      2335      2288
     3166      3070      2871      2714      2697      2555      2525      2490
     2283      2128      2247      2155      2074      2142      2194      2235
     2888      3243      3347      3886      4251      4664      4796      4637
     3892      3896      3798      3544      3461      3393      3339      3163
     3033      3051      3112      3077      3142      3192      3084      3181
     3208      3194      3247      3272      3415      3447      3406      3515
     2801      2946      2844      2719      2741      2540      2508      2622
     2451      2445      2363      2351      2365      2369      2280      2349
     2145      2131      2106      2136      2014      2079      2076      2110
     1991      1968      1992      1987      1945      1967      2016      1852
     1917      1928      1951      1900      1944      1962      2047      2013
     2747      2822      2886      2815      2834      2760      2729      2616
     2500      2308      2302      2201      2147      2139      2153      2161
     1993      2074      2000      1959      1995      1971      2039      2007
     2275      2203      2140      2095      2268      2126      2193      2213
     2220      2112      2089      2188      2173      2146      2138      2229
     1895      1869      1831      1904      1973      1956      1861      1761
     1706      1749      1677      1612      1619      1640      1655      1748
     1632      1727      1654      1689      1749      1710      1745      1752
     1805      1817      1737      1749      1766      1686      1702      1664
     1557      1542      1559      1532      1497      1457      1514      1497
     1419      1467      1423      1400      1408      1397      1344      1366
     1361      1308      1377      1403      1331      1363      1414      1311
     1639      1630      1720      1831      1771      1749      1767      1715
     1520      1559      1522      1443      1473      1314      1381      1321
     1230      1218      1173      1162      1209      1180      1158      1144
     1177      1218      1196      1143      1148      1099      1133      1194
     1161      1156      1208      1213      1198      1215      1254      1307
     1443      1438      1380      1396      1355      1294      1365      1445
     2010      2187      2369      2363      2423      2327      2201      2199
     1935      1809      1770      1669      1606      1654      1670      1557
     1284      1292      1313      1296      1312      1284      1279      1283
     1274      1250      1375      1316      1379      1350      1374      1406
     1560      1548      1470      1533      1366      1463      1372      1361
     1232      1227      1208      1208      1187      1209      1174      1256
     1241      1129      1132      1175      1171      1154      1132      1153
     1154      1197      1152      1276      1229      1201      1279      1301
     1502      1478      1495      1499      1571      1650      1614      1557
     1442      1392      1412      1352      1286      1364      1340      1322
     1227      1178      1286      1261      1274      1250      1292      1316
     1222      1207      1198      1267      1228      1247      1242      1228
     1243      1251      1295      1345      1331      1341      1454      1408
     1601      1477      1584      1482      1493      1476      1464      1418
     1297      1280      1335      1297      1197      1172      1209      1171
     1143      1162      1116      1133      1144      1132      1109      1116
     1128      1116      1104      1113      1061      1150      1115      1104
     1076      1067      1091      1166      1095      1140      1204      1209
     1108      1104      1145      1159      1078      1128      1095      1124
     1190      1148      1198      1148      1144      1226      1202      1230
     1159      1209      1195      1182      1153      1182      1147      1216
     1270      1350      1362      1367      1405      1353      1416      1398
     1376      1352      1349      1372      1300      1414      1339      1437
     1316      1274      1289      1256      1271      1256      1316      1324
     1310      1273      1249      1213      1249      1294      1211      1243
     1126      1022      1091      1120      1061      1114      1071      1043
     1074      1077      1084      1101      1090      1101      1089      1063
     1037      1047      1064      1069      1077      1084      1013      1096
     1087      1097      1080      1159      1084      1051       969      1034
     1053      1029      1075      1025      1078      1064      1061      1020
     1136      1103      1083      1128      1042      1092      1153      1131
     1108      1173      1161      1188      1132      1126      1084      1153
     1103      1050      1173      1016      1009      1071      1060      1003
     1125      1066      1070      1130      1141      1201      1158      1203
     1187      1049      1098      1171      1094      1162      1111      1163
     1056      1029      1058      1010      1110      1085      1032      1090
     1075      1081      1050      1024      1089      1093      1120      1134
     1319      1294      1344      1263      1350      1497      1427      1501
     1284      1244      1303      1255      1270      1281      1282      1306
     1153      1120      1098      1134      1162      1096      1107      1083
     1105      1068      1073      1090      1066      1122      1132      1087
     1133      1151      1132      1188      1163      1162      1204      1188
     1173      1166      1187      1224      1168      1205      1241      1223
     1179      1218      1202      1170      1172      1160      1174      1180
     1199      1215      1176      1227      1199      1200      1197      1178
     1167      1196      1191      1202      1192      1269      1199      1223
     1362      1436      1349      1353      1392      1314      1306      1370
     1343      1279      1288      1232      1258      1257      1244      1271
     1317      1363      1317      1237      1244      1241      1216      1234
     1304      1368      1288      1368      1359      1368      1457      1527
     1351      1343      1386      1365      1354      1411      1371      1329
     1268      1284      1183      1255      1222      1227      1167      1167
     1118      1170      1218      1268      1224      1261      1217      1285
     1335      1298      1268      1253      1248      1255      1240      1366
     1232      1249      1283      1245      1281      1212      1256      1231
     1180      1256      1170      1208      1185      1208      1190      1172
     1132      1186      1131      1189      1194      1118      1100      1097
     1271      1167      1115      1209      1200      1182      1106      1179
     1111      1191      1136      1152      1159      1198      1084      1198
     1061      1090      1094      1069      1147      1135      1090      1077
     1140      1110      1018      1151      1056      1061      1092      1062
     1079      1111      1132      1041      1175      1119      1148      1151
     1128      1129      1101      1042      1122      1148      1115      1115
     1065      1077      1061      1137      1085      1074      1049      1052
     1036      1148      1085      1040      1130      1163      1135      1117
     1278      1260      1290      1199      1267      1232      1284      1307
     1289      1306      1348      1338      1385      1414      1438      1446
     1663      1573      1564      1588      1528      1453      1508      1507
     1459      1536      1414      1449      1495      1419      1425      1420
     1234      1320      1266      1331      1252      1366      1238      1237
     1191      1217      1200      1202      1186      1212      1212      1165
     1118      1127      1132      1193      1143      1154      1166      1133
     1135      1197      1184      1166      1189      1179      1178      1180
     1205      1153      1181      1161      1179      1114      1151      1135
     1164      1095      1201      1156      1110      1089      1131      1093
     1226      1224      1217      1286      1287      1315      1242      1362
     1212      1197      1167      1209      1177      1183      1188      1181
     1063      1085      1090      1054      1078      1040      1045      1023
      998       965       981       963       957       935      1031       950
      959      1008      1023      1058      1032      1088      1078      1068
     1076      1110      1128      1168      1105      1053      1121      1114
     1042      1058      1095      1090      1015      1040       975      1015
      937       986      1037       927       995       960       979       960
      971       886       886       977       978       900       909       976
      956       919       845       903       907       892       889       894
      914       865       896       857       890       871       884       949
      814       884       846       789       836       831       860       857
      875       793       873       787       860       847       842       862
      796       798       829       873       856       832       835       860
      846       890       824       830       846       836       832       839
      833       853       823       771       825       839       863       827
      834       852       895       859       782       873       854       817
      807       850       845       844       782       773       845       801
      782       727       793       771       770       830       773       751
      792       828       783       811       795       832       792       778
      828       889       907       851       882       883       886       887
      861       838       815       800       828       820       847       813
      807       806       868       811       825       785       823       776
      758       817       781       792       767       822       780       817
      802       791       812       823       818       817       827       884
      796       809       859       821       798       826       858       807
      793       869       803       858       844       867       829       864
      869       844       864       878       919       893       852       899
      892       946       958       928       962       960       980      1023
     1011      1020       974       960       971       987      1024       967
      861       912       958       927       923       913       889       928
      890       856       857       843       880       870       807       846
      843       875       849       847       835       830       906       854
      898       918       908       925       939       956       935       978
      907       940       928       874       879       883       921       903
      911       903       901       918       878       829       888       903
      850       887       865       843       891       839       888       865
      842       836       868       796       901       901       885       821
      832       852       884       907       858       906       860       895
      874       911       915       881       892       894       890       884
      899       858       856       935       893       894       814       881
      890       900       881       949       866       902       904       900
      903       906       873       918       823       903       867       878
      880       920       889       877       950       899       931       869
      827       840       845       850       877       846       843       921
      842       858       856       863       896       814       810       852
      804       841       845       862       880       886       819       879
      825       877       846       840       875       837       868       853
      918       944      1000       954       938       969       969      1008
     1141      1100      1118      1111      1108      1150      1166      1173
     1092      1040      1114      1000      1126      1090      1030      1053
     1001      1032      1042      1021      1002       930      1021       972
     1039