File: samples/BT86.UXD
; ...\RAW\BT86.raw(Diffrac Plus V1.01 file) converted by XCH V1.0
_FILEVERSION=2
_SAMPLE='BT86'
_USER='Department of Chemistry'
_ATTACHMENTS_CODE=0
_GONIOMETER_RADIUS=200.5
_FIXED_DIVSLIT=0.150000
_FIXED_SAMPLESLIT=1.000000
_SOLLER_SLITS='Y'
_FIXED_DETSLIT=25.22
_MONOCHROMATOR=0
; None
_THIN_FILM='N'
_BETA_FILTER='N'
_FIXED_ANTISLIT=12.38
_ANALYZER_CODE=0
; None
_DATEMEASURED='04-Mar-2010 20:59:14'
_WL_UNIT='A'
_WL1=1.540600
_WL2=1.544390
_WL3=1.392220
_WLRATIO=0.500000
_ANODE='Cu'
; (Data for Range number 1)
_DRIVE='COUPLED'
_STEPTIME=0.500000
_STEPSIZE=0.015592
_STEPMODE='C'
_START=3.000000
_THETA=1.500000
_2THETA=3.000000
_KHI=0.000000
_PHI=0.000000
_X=0.000000
_Y=0.000000
_Z=0.000000
_VARDIVERGENCE='V6'
_ANTISCATTER=0.000000
_DETECTOR=5
_HV=0.000000
_GAIN=0.000000
_LLD=0.000000
_ULD=0.000000
_DETECTORSLIT='unkn'
_AUX1=0.000000
_AUX2=0.000000
_AUX3=0.000000
_TIMESTARTED=17
_TEMP_RATE=-1.000000
_TEMP_DELAY=-1.000000
_KV=45
_MA=40
_RANGE_WL=1.540600
_3DPLANE=0
_GONIOMETER=-0.832000
_PSDCHANNEL0=0
_2THETACOUNTS
3.000	187
3.031	178
3.062	193
3.094	162
3.125	169
3.156	192
3.187	183
3.218	188
3.249	197
3.281	191
3.312	162
3.343	197
3.374	181
3.405	163
3.437	166
3.468	164
3.499	195
3.530	191
3.561	192
3.593	181
3.624	180
3.655	190
3.686	187
3.717	180
3.748	166
3.780	185
3.811	197
3.842	162
3.873	164
3.904	181
3.936	160
3.967	183
3.998	181
4.029	168
4.060	183
4.091	190
4.123	198
4.154	175
4.185	176
4.216	191
4.247	174
4.279	168
4.310	177
4.341	195
4.372	191
4.403	168
4.434	157
4.466	170
4.497	171
4.528	178
4.559	180
4.590	170
4.622	156
4.653	173
4.684	200
4.715	183
4.746	145
4.778	176
4.809	177
4.840	180
4.871	175
4.902	195
4.933	187
4.965	185
4.996	197
5.027	190
5.058	217
5.089	186
5.121	189
5.152	205
5.183	184
5.214	198
5.245	202
5.276	172
5.308	175
5.339	179
5.370	185
5.401	174
5.432	160
5.464	184
5.495	202
5.526	209
5.557	182
5.588	153
5.619	181
5.651	193
5.682	213
5.713	178
5.744	206
5.775	167
5.807	170
5.838	200
5.869	194
5.900	198
5.931	194
5.963	192
5.994	182
6.025	182
6.056	192
6.087	174
6.118	161
6.150	195
6.181	196
6.212	206
6.243	189
6.274	222
6.306	219
6.337	211
6.368	221
6.399	204
6.430	199
6.461	177
6.493	202
6.524	191
6.555	218
6.586	212
6.617	182
6.649	212
6.680	173
6.711	204
6.742	200
6.773	191
6.804	191
6.836	198
6.867	203
6.898	195
6.929	225
6.960	206
6.992	212
7.023	204
7.054	228
7.085	193
7.116	213
7.148	165
7.179	206
7.210	225
7.241	195
7.272	195
7.303	205
7.335	188
7.366	208
7.397	226
7.428	199
7.459	204
7.491	223
7.522	226
7.553	191
7.584	195
7.615	247
7.646	221
7.678	226
7.709	219
7.740	237
7.771	223
7.802	234
7.834	224
7.865	226
7.896	239
7.927	241
7.958	249
7.990	228
8.021	213
8.052	213
8.083	235
8.114	221
8.145	224
8.177	200
8.208	252
8.239	214
8.270	243
8.301	257
8.333	238
8.364	224
8.395	234
8.426	220
8.457	230
8.488	239
8.520	242
8.551	216
8.582	234
8.613	265
8.644	235
8.676	250
8.707	261
8.738	251
8.769	260
8.800	306
8.831	343
8.863	306
8.894	407
8.925	542
8.956	674
8.987	1138
9.019	2306
9.050	5640
9.081	4109
9.112	1539
9.143	666
9.175	423
9.206	347
9.237	286
9.268	278
9.299	281
9.330	250
9.362	285
9.393	289
9.424	271
9.455	250
9.486	283
9.518	235
9.549	225
9.580	252
9.611	267
9.642	273
9.673	248
9.705	268
9.736	256
9.767	255
9.798	245
9.829	254
9.861	256
9.892	276
9.923	279
9.954	263
9.985	262
10.02	267
10.05	253
10.08	254
10.11	297
10.14	248
10.17	279
10.20	276
10.23	323
10.27	357
10.30	430
10.33	616
10.36	548
10.39	373
10.42	320
10.45	297
10.48	256
10.52	271
10.55	299
10.58	260
10.61	276
10.64	246
10.67	238
10.70	253
10.73	272
10.76	292
10.80	266
10.83	258
10.86	270
10.89	254
10.92	275
10.95	300
10.98	268
11.01	271
11.05	253
11.08	275
11.11	280
11.14	263
11.17	292
11.20	286
11.23	286
11.26	271
11.30	285
11.33	286
11.36	237
11.39	303
11.42	241
11.45	285
11.48	285
11.51	293
11.54	285
11.58	344
11.61	323
11.64	352
11.67	334
11.70	271
11.73	289
11.76	256
11.79	305
11.83	300
11.86	295
11.89	265
11.92	274
11.95	265
11.98	269
12.01	256
12.04	292
12.07	270
12.11	265
12.14	253
12.17	273
12.20	273
12.23	274
12.26	241
12.29	289
12.32	259
12.36	248
12.39	257
12.42	268
12.45	263
12.48	281
12.51	302
12.54	281
12.57	272
12.60	292
12.64	265
12.67	268
12.70	272
12.73	287
12.76	294
12.79	257
12.82	314
12.85	269
12.89	293
12.92	253
12.95	335
12.98	267
13.01	302
13.04	285
13.07	266
13.10	300
13.13	292
13.17	292
13.20	288
13.23	291
13.26	300
13.29	288
13.32	318
13.35	306
13.38	274
13.42	270
13.45	286
13.48	279
13.51	300
13.54	303
13.57	293
13.60	305
13.63	305
13.67	276
13.70	283
13.73	265
13.76	266
13.79	310
13.82	288
13.85	276
13.88	276
13.91	300
13.95	271
13.98	263
14.01	281
14.04	299
14.07	286
14.10	306
14.13	312
14.16	306
14.20	280
14.23	301
14.26	297
14.29	283
14.32	301
14.35	287
14.38	297
14.41	319
14.44	286
14.48	280
14.51	308
14.54	306
14.57	303
14.60	312
14.63	310
14.66	317
14.69	296
14.73	287
14.76	303
14.79	269
14.82	299
14.85	265
14.88	302
14.91	279
14.94	301
14.97	308
15.01	280
15.04	291
15.07	299
15.10	326
15.13	287
15.16	276
15.19	313
15.22	314
15.26	296
15.29	268
15.32	279
15.35	284
15.38	302
15.41	330
15.44	307
15.47	274
15.50	333
15.54	369
15.57	352
15.60	328
15.63	296
15.66	345
15.69	278
15.72	308
15.75	339
15.79	321
15.82	334
15.85	326
15.88	327
15.91	305
15.94	298
15.97	295
16.00	312
16.04	301
16.07	297
16.10	315
16.13	293
16.16	331
16.19	324
16.22	334
16.25	315
16.28	292
16.32	310
16.35	259
16.38	312
16.41	288
16.44	315
16.47	312
16.50	309
16.53	341
16.57	302
16.60	303
16.63	309
16.66	322
16.69	333
16.72	326
16.75	296
16.78	301
16.81	306
16.85	264
16.88	307
16.91	323
16.94	347
16.97	295
17.00	275
17.03	310
17.06	315
17.10	314
17.13	328
17.16	311
17.19	299
17.22	329
17.25	315
17.28	336
17.31	350
17.34	322
17.38	325
17.41	372
17.44	316
17.47	322
17.50	312
17.53	333
17.56	309
17.59	339
17.63	315
17.66	319
17.69	336
17.72	308
17.75	352
17.78	363
17.81	383
17.84	325
17.87	333
17.91	329
17.94	346
17.97	339
18.00	326
18.03	333
18.06	415
18.09	510
18.12	692
18.16	418
18.19	345
18.22	335
18.25	341
18.28	360
18.31	345
18.34	356
18.37	321
18.41	343
18.44	364
18.47	348
18.50	334
18.53	342
18.56	374
18.59	362
18.62	331
18.65	360
18.69	357
18.72	349
18.75	343
18.78	356
18.81	339
18.84	364
18.87	336
18.90	347
18.94	379
18.97	407
19.00	339
19.03	361
19.06	327
19.09	348
19.12	354
19.15	352
19.18	381
19.22	400
19.25	365
19.28	375
19.31	389
19.34	379
19.37	370
19.40	400
19.43	460
19.47	481
19.50	798
19.53	1210
19.56	2203
19.59	3780
19.62	3758
19.65	2029
19.68	1121
19.71	1168
19.75	1837
19.78	3104
19.81	3694
19.84	2279
19.87	971
19.90	629
19.93	475
19.96	441
20.00	448
20.03	410
20.06	426
20.09	513
20.12	541
20.15	701
20.18	1191
20.21	1727
20.24	1764
20.28	1048
20.31	637
20.34	516
20.37	448
20.40	416
20.43	421
20.46	454
20.49	394
20.53	405
20.56	381
20.59	440
20.62	457
20.65	577
20.68	915
20.71	1109
20.74	696
20.78	512
20.81	474
20.84	459
20.87	529
20.90	676
20.93	785
20.96	624
20.99	543
21.02	475
21.06	425
21.09	404
21.12	408
21.15	395
21.18	360
21.21	365
21.24	408
21.27	415
21.31	396
21.34	375
21.37	421
21.40	407
21.43	385
21.46	397
21.49	408
21.52	400
21.55	362
21.59	399
21.62	434
21.65	389
21.68	426
21.71	428
21.74	419
21.77	377
21.80	387
21.84	411
21.87	420
21.90	424
21.93	404
21.96	392
21.99	447
22.02	440
22.05	396
22.08	412
22.12	419
22.15	442
22.18	406
22.21	407
22.24	415
22.27	424
22.30	443
22.33	389
22.37	378
22.40	427
22.43	439
22.46	439
22.49	442
22.52	444
22.55	384
22.58	433
22.61	407
22.65	450
22.68	420
22.71	408
22.74	406
22.77	432
22.80	425
22.83	418
22.86	416
22.90	434
22.93	420
22.96	410
22.99	438
23.02	457
23.05	447
23.08	412
23.11	402
23.15	458
23.18	419
23.21	426
23.24	477
23.27	444
23.30	549
23.33	678
23.36	782
23.39	805
23.43	647
23.46	469
23.49	452
23.52	421
23.55	390
23.58	414
23.61	405
23.64	401
23.68	415
23.71	457
23.74	443
23.77	428
23.80	441
23.83	415
23.86	405
23.89	450
23.92	456
23.96	434
23.99	419
24.02	447
24.05	405
24.08	448
24.11	452
24.14	431
24.17	451
24.21	409
24.24	383
24.27	438
24.30	402
24.33	425
24.36	430
24.39	414
24.42	428
24.45	431
24.49	435
24.52	462
24.55	471
24.58	468
24.61	575
24.64	582
24.67	535
24.70	494
24.74	438
24.77	443
24.80	421
24.83	458
24.86	450
24.89	498
24.92	519
24.95	485
24.99	417
25.02	419
25.05	424
25.08	455
25.11	404
25.14	420
25.17	424
25.20	443
25.23	457
25.27	498
25.30	405
25.33	419
25.36	430
25.39	434
25.42	421
25.45	453
25.48	464
25.52	432
25.55	420
25.58	401
25.61	392
25.64	403
25.67	467
25.70	452
25.73	448
25.76	424
25.80	436
25.83	431
25.86	462
25.89	467
25.92	399
25.95	417
25.98	418
26.01	441
26.05	454
26.08	436
26.11	425
26.14	459
26.17	494
26.20	623
26.23	972
26.26	1465
26.29	1402
26.33	816
26.36	532
26.39	494
26.42	445
26.45	421
26.48	396
26.51	433
26.54	428
26.58	427
26.61	432
26.64	481
26.67	543
26.70	883
26.73	1354
26.76	1863
26.79	1431
26.82	793
26.86	545
26.89	432
26.92	457
26.95	450
26.98	402
27.01	483
27.04	531
27.07	742
27.11	1190
27.14	1336
27.17	979
27.20	637
27.23	695
27.26	1293
27.29	2443
27.32	1426
27.36	627
27.39	495
27.42	457
27.45	468
27.48	429
27.51	416
27.54	420
27.57	435
27.60	468
27.64	439
27.67	396
27.70	393
27.73	433
27.76	442
27.79	441
27.82	393
27.85	406
27.89	477
27.92	407
27.95	450
27.98	387
28.01	395
28.04	448
28.07	442
28.10	434
28.13	406
28.17	406
28.20	402
28.23	382
28.26	384
28.29	438
28.32	410
28.35	433
28.38	404
28.42	372
28.45	390
28.48	412
28.51	365
28.54	445
28.57	388
28.60	423
28.63	380
28.66	425
28.70	377
28.73	405
28.76	421
28.79	444
28.82	394
28.85	385
28.88	414
28.91	416
28.95	417
28.98	433
29.01	399
29.04	389
29.07	401
29.10	428
29.13	426
29.16	457
29.19	598
29.23	772
29.26	833
29.29	633
29.32	442
29.35	414
29.38	415
29.41	391
29.44	420
29.48	402
29.51	475
29.54	467
29.57	430
29.60	461
29.63	387
29.66	387
29.69	389
29.73	341
29.76	405
29.79	395
29.82	418
29.85	482
29.88	682
29.91	891
29.94	909
29.97	623
30.01	497
30.04	394
30.07	407
30.10	391
30.13	399
30.16	409
30.19	411
30.22	392
30.26	383
30.29	377
30.32	408
30.35	350
30.38	398
30.41	383
30.44	381
30.47	394
30.50	425
30.54	394
30.57	364
30.60	385
30.63	405
30.66	373
30.69	374
30.72	382
30.75	370
30.79	361
30.82	372
30.85	397
30.88	382
30.91	400
30.94	385
30.97	404
31.00	367
31.03	387
31.07	376
31.10	368
31.13	389
31.16	388
31.19	470
31.22	632
31.25	728
31.28	523
31.32	388
31.35	486
31.38	471
31.41	464
31.44	416
31.47	411
31.50	358
31.53	406
31.56	387
31.60	448
31.63	508
31.66	557
31.69	533
31.72	460
31.75	567
31.78	643
31.81	549
31.85	458
31.88	420
31.91	403
31.94	464
31.97	483
32.00	405
32.03	358
32.06	401
32.10	368
32.13	352
32.16	378
32.19	338
32.22	384
32.25	375
32.28	369
32.31	344
32.34	401
32.38	387
32.41	353
32.44	398
32.47	475
32.50	574
32.53	605
32.56	456
32.59	385
32.63	375
32.66	350
32.69	324
32.72	368
32.75	358
32.78	364
32.81	368
32.84	357
32.87	374
32.91	363
32.94	317
32.97	346
33.00	325
33.03	358
33.06	356
33.09	330
33.12	334
33.16	346
33.19	314
33.22	342
33.25	347
33.28	314
33.31	366
33.34	327
33.37	318
33.40	331
33.44	340
33.47	341
33.50	341
33.53	309
33.56	342
33.59	331
33.62	366
33.65	377
33.69	356
33.72	341
33.75	317
33.78	334
33.81	344
33.84	344
33.87	298
33.90	329
33.93	318
33.97	335
34.00	326
34.03	320
34.06	322
34.09	380
34.12	387
34.15	537
34.18	720
34.22	705
34.25	502
34.28	371
34.31	363
34.34	302
34.37	301
34.40	361
34.43	297
34.47	345
34.50	299
34.53	315
34.56	324
34.59	304
34.62	278
34.65	350
34.68	388
34.71	474
34.75	523
34.78	465
34.81	419
34.84	370
34.87	335
34.90	314
34.93	310
34.96	313
35.00	337
35.03	402
35.06	597
35.09	614
35.12	497
35.15	363
35.18	353
35.21	327
35.24	346
35.28	301
35.31	323
35.34	344
35.37	279
35.40	328
35.43	320
35.46	331
35.49	322
35.53	344
35.56	311
35.59	287
35.62	328
35.65	280
35.68	298
35.71	314
35.74	303
35.77	319
35.81	287
35.84	302
35.87	326
35.90	352
35.93	524
35.96	557
35.99	462
36.02	333
36.06	311
36.09	302
36.12	310
36.15	271
36.18	294
36.21	291
36.24	298
36.27	282
36.30	296
36.34	290
36.37	318
36.40	297
36.43	293
36.46	291
36.49	299
36.52	281
36.55	288
36.59	286
36.62	298
36.65	335
36.68	316
36.71	299
36.74	275
36.77	264
36.80	286
36.84	262
36.87	271
36.90	263
36.93	259
36.96	275
36.99	307
37.02	259
37.05	265
37.08	313
37.12	270
37.15	283
37.18	263
37.21	286
37.24	286
37.27	263
37.30	275
37.33	301
37.37	298
37.40	247
37.43	258
37.46	291
37.49	244
37.52	254
37.55	286
37.58	295
37.61	275
37.65	274
37.68	300
37.71	276
37.74	251
37.77	296
37.80	253
37.83	266
37.86	256
37.90	240
37.93	271
37.96	250
37.99	277
38.02	271
38.05	248
38.08	249
38.11	263
38.14	266
38.18	267
38.21	254
38.24	260
38.27	261
38.30	228
38.33	259
38.36	261
38.39	257
38.43	260
38.46	285
38.49	277
38.52	291
38.55	311
38.58	271
38.61	255
38.64	255
38.67	241
38.71	236
38.74	264
38.77	253
38.80	240
38.83	237
38.86	250
38.89	246
38.92	240
38.96	244
38.99	253
39.02	234
39.05	264
39.08	279
39.11	255
39.14	245
39.17	277
39.21	251
39.24	264
39.27	252
39.30	269
39.33	285
39.36	330
39.39	350
39.42	317
39.45	300
39.49	249
39.52	256
39.55	244
39.58	253
39.61	249
39.64	250
39.67	280
39.70	247
39.74	270
39.77	304
39.80	291
39.83	270
39.86	255
39.89	263
39.92	253
39.95	245
39.98	231
40.00	269